t1_left	a1_left	f1_left	block_type	cat	stim	response	rt	id	modality	label	fb_response	fb_rt	fb_id	block	trial	attempt	retry	time_start	time_stimulus	time_response	time_log	sn	logger_sn	logger_time	participation_id	UserID	RunID	rel_time
FALSE	TRUE	NA	tar1att2_1	att_2	word_ttq_neg_10	1	1263.075	39	keydown	right_down	NA	NA	NA	0	0	0	FALSE	20783.16	21610.18	22890.015	23058.265	NA	0	23058.79	6593390	115257	6593392	0
FALSE	TRUE	NA	tar1att2_1	att_1	word_ttq_pos_8	1	1107.955	37	keydown	left_down	NA	NA	NA	0	1	0	FALSE	23059.185	23741.1	24865.705	25023.325	NA	1	25023.645	6593390	115257	6593393	1964.855
FALSE	TRUE	NA	tar1att2_1	att_1	word_ttq_pos_2	1	983.81	37	keydown	left_down	NA	NA	NA	0	2	0	FALSE	25024.245	25672.71	26673.18	26838.38	NA	2	26838.62	6593390	115257	6593393	3779.83
FALSE	TRUE	NA	tar1att2_1	att_1	word_ttq_pos_10	1	654.61	37	keydown	left_down	NA	NA	NA	0	3	0	FALSE	26838.9	27487.88	28159.3	28320.44	NA	3	28320.68	6593390	115257	6593393	5261.89
FALSE	TRUE	NA	tar1att2_1	tar_1	furongwang_p_9_test	1	723.28	39	keydown	right_down	NA	NA	NA	0	4	0	FALSE	28321.205	28886.6	29714.085	29869.085	NA	4	29869.325	6593390	115257	6593394	6810.535
FALSE	TRUE	NA	tar1att2_1	att_1	word_ttq_pos_6	1	912.41	37	keydown	left_down	NA	NA	NA	0	5	0	FALSE	29869.6	30451.91	31380.96	31534.31	NA	5	31534.555	6593390	115257	6593394	8475.765
FALSE	TRUE	NA	tar1att2_1	tar_1	baisha_p_10_test	1	657.365	39	keydown	right_down	NA	NA	NA	0	6	0	FALSE	31535.07	32183.775	32945.045	33099.645	NA	6	33099.875	6593390	115257	6593395	10041.085
FALSE	TRUE	NA	tar1att2_1	tar_1	yunyan_a_6_test	1	797.29	39	keydown	right_down	NA	NA	NA	0	7	0	FALSE	33100.31	33848.995	34764.89	34914.68	NA	7	34914.915	6593390	115257	6593395	11856.125
FALSE	TRUE	NA	tar1att2_1	att_1	word_ttq_pos_3	1	1027.3	37	keydown	left_down	NA	NA	NA	0	8	0	FALSE	34915.19	35481.715	36525.32	36679.795	NA	8	36680.055	6593390	115257	6593395	13621.265
FALSE	TRUE	NA	tar1att2_1	att_2	word_ttq_neg_3	1	833.69	39	keydown	right_down	NA	NA	NA	0	9	0	FALSE	36680.315	37196.075	38046.425	38211.85	NA	9	38212.09	6593390	115257	6593396	15153.3
FALSE	TRUE	NA	tar1att2_1	att_2	word_ttq_neg_2	1	548.37	39	keydown	right_down	NA	NA	NA	0	10	0	FALSE	38212.41	38861.27	39426.295	39577.35	NA	10	39577.595	6593390	115257	6593396	16518.805
FALSE	TRUE	NA	tar1att2_1	att_2	word_ttq_neg_4	1	804.895	39	keydown	right_down	NA	NA	NA	0	11	0	FALSE	39577.885	40426.615	41248.155	41409.055	NA	11	41409.31	6593390	115257	6593397	18350.52
FALSE	TRUE	NA	tar1att2_1	att_1	word_ttq_pos_7	1	658.075	37	keydown	left_down	NA	NA	NA	0	12	0	FALSE	41409.605	42075.17	42749.905	42907.76	NA	12	42908	6593390	115257	6593397	19849.21
FALSE	TRUE	NA	tar1att2_1	tar_1	huanghelou_p_5_test	1	585.705	39	keydown	right_down	NA	NA	NA	0	13	0	FALSE	42908.405	43773.64	44468.66	44622.92	NA	13	44623.16	6593390	115257	6593397	21564.37
FALSE	TRUE	NA	tar1att2_1	att_1	word_ttq_pos_1	1	917.1	37	keydown	left_down	NA	NA	NA	0	14	0	FALSE	44623.46	45222.395	46156.185	46304.835	NA	14	46305.075	6593390	115257	6593398	23246.285
FALSE	TRUE	NA	tar1att2_1	tar_1	baisha_a_5_test	1	681.31	39	keydown	right_down	NA	NA	NA	0	15	0	FALSE	46305.445	47253.94	48043.685	48186.48	NA	15	48186.78	6593390	115257	6593398	25127.99
FALSE	TRUE	NA	tar1att2_1	att_1	word_ttq_pos_9	1	846.91	37	keydown	left_down	NA	NA	NA	0	16	0	FALSE	48187.05	49052.435	49915.995	50068.2	NA	16	50068.445	6593390	115257	6593399	27009.655
FALSE	TRUE	NA	tar1att2_1	att_1	word_ttq_pos_5	1	740.99	37	keydown	left_down	NA	NA	NA	0	17	0	FALSE	50068.735	50617.73	51375.46	51533.555	NA	17	51533.805	6593390	115257	6593399	28475.015
FALSE	TRUE	NA	tar1att2_1	att_2	word_ttq_neg_8	1	833.04	39	keydown	right_down	NA	NA	NA	0	18	0	FALSE	51534.06	52482.82	53332.48	53482.015	NA	18	53482.295	6593390	115257	6593400	30423.505
FALSE	TRUE	NA	tar1att2_1	att_2	word_ttq_neg_5	1	997.495	39	keydown	right_down	NA	NA	NA	0	19	0	FALSE	53482.55	54347.87	55361.995	55513.435	NA	19	55513.68	6593390	115257	6593400	32454.89
FALSE	TRUE	NA	tar1att2_1	att_2	word_ttq_neg_6	1	913.725	39	keydown	right_down	NA	NA	NA	0	20	0	FALSE	55513.94	56129.635	57060.375	57211.98	NA	20	57212.21	6593390	115257	6593401	34153.42
FALSE	TRUE	NA	tar1att2_1	tar_1	huanghelou_p_4_test	1	437.91	39	keydown	right_down	NA	NA	NA	0	21	0	FALSE	57212.595	58194.425	58740.325	58893.855	NA	21	58894.09	6593390	115257	6593401	35835.3
FALSE	TRUE	NA	tar1att2_1	att_1	word_ttq_pos_4	1	805.545	37	keydown	left_down	NA	NA	NA	0	22	0	FALSE	58894.49	59410.305	60232.64	60392.595	NA	22	60392.83	6593390	115257	6593401	37334.04
FALSE	TRUE	NA	tar1att2_1	tar_1	yunyan_p_7_test	1	616.075	39	keydown	right_down	NA	NA	NA	0	23	0	FALSE	60393.2	61241.795	61966.755	62124.39	NA	23	62124.63	6593390	115257	6593402	39065.84
FALSE	TRUE	NA	tar1att2_2	tar_1	huanghelou_p_4_test	3	null	NA	NA	NA	right_down	972.155	39	1	0	0	TRUE	78343.915	78909.715	80408.52	81481.035	NA	24	81481.355	6593390	115257	6593404	58422.565
FALSE	TRUE	NA	tar1att2_2	tar_1	huanghelou_p_4_test	1	1005.315	39	keydown	right_down	NA	NA	NA	1	0	1	FALSE	78343.915	81481.375	82512.86	82673.15	NA	25	82673.435	6593390	115257	6593404	59614.645
FALSE	TRUE	NA	tar1att2_2	att_2	word_ttq_neg_5	3	null	NA	NA	NA	right_down	1476.69	39	1	1	0	TRUE	82673.685	83622.345	85121.19	86699.14	NA	26	86699.41	6593390	115257	6593405	63640.62
FALSE	TRUE	NA	tar1att2_2	att_2	word_ttq_neg_5	1	556.215	39	keydown	right_down	NA	NA	NA	1	1	1	FALSE	82673.685	86699.42	87275.955	87435.6	NA	27	87435.845	6593390	115257	6593405	64377.055
FALSE	TRUE	NA	tar1att2_2	att_1	word_ttq_pos_3	1	782.26	37	keydown	left_down	NA	NA	NA	1	2	0	FALSE	87436.105	88018.55	88817.465	88967.75	NA	28	88968.03	6593390	115257	6593406	65909.24
FALSE	TRUE	NA	tar1att2_2	tar_1	yunyan_p_6_test	1	550.59	39	keydown	right_down	NA	NA	NA	1	3	0	FALSE	88968.375	89717.33	90384.59	90549.68	NA	29	90549.925	6593390	115257	6593406	67491.135
FALSE	TRUE	NA	tar1att2_2	att_2	word_ttq_neg_1	1	751.945	39	keydown	right_down	NA	NA	NA	1	4	0	FALSE	90550.21	91465.555	92234.33	92398.07	NA	30	92398.34	6593390	115257	6593406	69339.55
FALSE	TRUE	NA	tar1att2_2	tar_1	huanghelou_p_5_test	2	557.535	37	keydown	left_down	NA	NA	NA	1	5	0	FALSE	92398.715	93080.87	93655.035	93880.125	NA	31	93880.385	6593390	115257	6593407	70821.595
FALSE	TRUE	NA	tar1att2_2	att_2	word_ttq_neg_2	3	null	NA	NA	NA	right_down	9.73	39	1	6	0	TRUE	93880.625	94845.895	96345.025	96493.78	NA	32	96494.06	6593390	115257	6593407	73435.27
FALSE	TRUE	NA	tar1att2_2	att_2	word_ttq_neg_2	1	531.26	39	keydown	right_down	NA	NA	NA	1	6	1	FALSE	93880.625	96494.07	97042.445	97193.935	NA	33	97194.235	6593390	115257	6593408	74135.445
FALSE	TRUE	NA	tar1att2_2	att_2	word_ttq_neg_8	1	1090.07	39	keydown	right_down	NA	NA	NA	1	7	0	FALSE	97194.55	97726.77	98833.495	98992.34	NA	34	98992.6	6593390	115257	6593408	75933.81
FALSE	TRUE	NA	tar1att2_2	att_1	word_ttq_pos_9	1	502.265	37	keydown	left_down	NA	NA	NA	1	8	0	FALSE	98992.905	99691.715	100210.635	100374.5	NA	35	100374.745	6593390	115257	6593408	77315.955
FALSE	TRUE	NA	tar1att2_2	att_1	word_ttq_pos_2	1	591.2	37	keydown	left_down	NA	NA	NA	1	9	0	FALSE	100375.03	101023.935	101632.305	101789.935	NA	36	101790.175	6593390	115257	6593409	78731.385
FALSE	TRUE	NA	tar1att2_2	att_1	word_ttq_pos_5	1	641.27	37	keydown	left_down	NA	NA	NA	1	10	0	FALSE	101790.485	102406.06	103064	103222	NA	37	103222.245	6593390	115257	6593409	80163.455
FALSE	TRUE	NA	tar1att2_2	att_2	word_ttq_neg_1	1	498.815	39	keydown	right_down	NA	NA	NA	1	11	0	FALSE	103222.555	104071.28	104586.755	104754.01	NA	38	104754.255	6593390	115257	6593409	81695.465
FALSE	TRUE	NA	tar1att2_2	att_1	word_ttq_pos_4	1	656.43	37	keydown	left_down	NA	NA	NA	1	12	0	FALSE	104754.565	105703.21	106376.305	106535.79	NA	39	106536.055	6593390	115257	6593410	83477.265
FALSE	TRUE	NA	tar1att2_2	att_2	word_ttq_neg_4	1	652.575	39	keydown	right_down	NA	NA	NA	1	13	0	FALSE	106536.33	107035.38	107705.12	107867.965	NA	40	107868.215	6593390	115257	6593410	84809.425
FALSE	TRUE	NA	tar1att2_2	att_1	word_ttq_pos_7	1	612.255	37	keydown	left_down	NA	NA	NA	1	14	0	FALSE	107868.495	108517.37	109146.645	109300.07	NA	41	109300.35	6593390	115257	6593411	86241.56
FALSE	TRUE	NA	tar1att2_2	tar_1	liqun_a_10_test	1	697.68	39	keydown	right_down	NA	NA	NA	1	15	0	FALSE	109300.715	109982.785	110792.975	110948.61	NA	42	110948.86	6593390	115257	6593411	87890.07
FALSE	TRUE	NA	tar1att2_2	att_1	word_ttq_pos_2	1	663.475	37	keydown	left_down	NA	NA	NA	1	16	0	FALSE	110949.14	111714.64	112394.765	112547.23	NA	43	112547.475	6593390	115257	6593411	89488.685
FALSE	TRUE	NA	tar1att2_2	tar_1	furongwang_a_9_test	1	624.67	39	keydown	right_down	NA	NA	NA	1	17	0	FALSE	112547.875	113180.02	113919.125	114079.225	NA	44	114079.465	6593390	115257	6593412	91020.675
FALSE	TRUE	NA	tar1att2_2	att_2	word_ttq_neg_6	1	774.65	39	keydown	right_down	NA	NA	NA	1	18	0	FALSE	114079.715	114578.77	115370.09	115528.03	NA	45	115528.28	6593390	115257	6593412	92469.49
FALSE	TRUE	NA	tar1att2_2	att_2	word_ttq_neg_9	1	700.38	39	keydown	right_down	NA	NA	NA	1	19	0	FALSE	115528.555	116310.6	117027.63	117193.215	NA	46	117193.455	6593390	115257	6593413	94134.665
FALSE	TRUE	NA	tar1att2_2	att_2	word_ttq_neg_10	1	567.59	39	keydown	right_down	NA	NA	NA	1	20	0	FALSE	117193.71	118142.335	118726.575	118891.72	NA	47	118892.02	6593390	115257	6593413	95833.23
FALSE	TRUE	NA	tar1att2_2	att_1	word_ttq_pos_1	1	488.655	37	keydown	left_down	NA	NA	NA	1	21	0	FALSE	118892.315	119757.59	120262.955	120423.745	NA	48	120423.985	6593390	115257	6593413	97365.195
FALSE	TRUE	NA	tar1att2_2	tar_1	furongwang_p_7_test	1	672.945	39	keydown	right_down	NA	NA	NA	1	22	0	FALSE	120424.705	121089.785	121876.07	122038.995	NA	49	122039.235	6593390	115257	6593414	98980.445
FALSE	TRUE	NA	tar1att2_2	att_2	word_ttq_neg_7	1	1210.895	39	keydown	right_down	NA	NA	NA	1	23	0	FALSE	122039.51	122588.52	123816.07	123970.565	NA	50	123970.805	6593390	115257	6593414	100912.015
FALSE	TRUE	NA	tar1att2_2	att_1	word_ttq_pos_8	1	596.45	37	keydown	left_down	NA	NA	NA	1	24	0	FALSE	123971.065	124620.075	125233.145	125386.08	NA	51	125386.325	6593390	115257	6593415	102327.535
FALSE	TRUE	NA	tar1att2_2	att_1	word_ttq_pos_8	1	479.63	37	keydown	left_down	NA	NA	NA	1	25	0	FALSE	125386.6	125952.215	126448.515	126618.335	NA	52	126618.585	6593390	115257	6593415	103559.795
FALSE	TRUE	NA	tar1att2_2	att_1	word_ttq_pos_3	1	469.815	37	keydown	left_down	NA	NA	NA	1	26	0	FALSE	126618.86	127450.97	127937.45	128100.53	NA	53	128100.835	6593390	115257	6593415	105042.045
FALSE	TRUE	NA	tar1att2_2	tar_1	yunyan_p_7_test	1	575.205	39	keydown	right_down	NA	NA	NA	1	27	0	FALSE	128101.25	129016.21	129608.07	129765.605	NA	54	129765.855	6593390	115257	6593416	106707.065
FALSE	TRUE	NA	tar1att2_2	att_2	word_ttq_neg_10	1	596.41	39	keydown	right_down	NA	NA	NA	1	28	0	FALSE	129766.12	130381.76	130994.82	131147.735	NA	55	131148.045	6593390	115257	6593416	108089.255
FALSE	TRUE	NA	tar1att2_2	att_1	word_ttq_pos_3	1	652.25	37	keydown	left_down	NA	NA	NA	1	29	0	FALSE	131148.36	131714.03	132382.91	132546.515	NA	56	132546.78	6593390	115257	6593416	109487.99
FALSE	TRUE	NA	tar1att2_2	tar_1	furongwang_a_10_test	1	641.42	39	keydown	right_down	NA	NA	NA	1	30	0	FALSE	132547.125	133062.745	133823.42	133995.275	NA	57	133995.53	6593390	115257	6593417	110936.74
FALSE	TRUE	NA	tar1att2_2	att_2	word_ttq_neg_3	1	677.505	39	keydown	right_down	NA	NA	NA	1	31	0	FALSE	133995.81	134644.67	135338.82	135493.965	NA	58	135494.555	6593390	115257	6593417	112435.765
FALSE	TRUE	NA	tar1att2_2	att_1	word_ttq_pos_10	1	496.7	37	keydown	left_down	NA	NA	NA	1	32	0	FALSE	135494.79	136376.505	136889.835	137042.625	NA	59	137042.89	6593390	115257	6593418	113984.1
FALSE	TRUE	NA	tar1att2_2	att_1	word_ttq_pos_6	1	524.45	37	keydown	left_down	NA	NA	NA	1	33	0	FALSE	137043.16	137625.455	138166.565	138324.84	NA	60	138325.075	6593390	115257	6593418	115266.285
FALSE	TRUE	NA	tar1att2_2	att_2	word_ttq_neg_5	1	448.295	39	keydown	right_down	NA	NA	NA	1	34	0	FALSE	138325.335	139190.79	139655.71	139806.905	NA	61	139807.145	6593390	115257	6593418	116748.355
FALSE	TRUE	NA	tar1att2_2	att_1	word_ttq_pos_2	1	472.035	37	keydown	left_down	NA	NA	NA	1	35	0	FALSE	139807.425	140389.705	140878.405	141039.145	NA	62	141039.385	6593390	115257	6593419	117980.595
FALSE	TRUE	NA	tar1att2_2	tar_1	nobrand_p_4_test	1	1019.005	39	keydown	right_down	NA	NA	NA	1	36	0	FALSE	141039.795	141805.115	142943.05	143104.015	NA	63	143104.25	6593390	115257	6593419	120045.46
FALSE	TRUE	NA	tar1att2_2	att_2	word_ttq_neg_8	1	668.855	39	keydown	right_down	NA	NA	NA	1	37	0	FALSE	143104.505	144069.81	144755.345	144919.115	NA	64	144919.36	6593390	115257	6593420	121860.57
FALSE	TRUE	NA	tar1att2_2	att_2	word_ttq_neg_10	1	574.42	39	keydown	right_down	NA	NA	NA	1	38	0	FALSE	144919.64	145518.555	146110.225	146267.905	NA	65	146268.17	6593390	115257	6593420	123209.38
FALSE	TRUE	NA	tar1att2_2	tar_1	furongwang_p_9_test	2	535.23	37	keydown	left_down	NA	NA	NA	1	39	0	FALSE	146268.565	147050.545	147602.56	147749.97	NA	66	147750.245	6593390	115257	6593420	124691.455
FALSE	TRUE	NA	tar1att2_2	att_2	word_ttq_neg_2	1	737.28	39	keydown	right_down	NA	NA	NA	1	40	0	FALSE	147750.5	148732.405	149486.32	149648.36	NA	67	149648.6	6593390	115257	6593421	126589.81
FALSE	TRUE	NA	tar1att2_2	att_1	word_ttq_pos_5	1	505.375	37	keydown	left_down	NA	NA	NA	1	41	0	FALSE	149648.885	150530.865	151052.84	151213.635	NA	68	151213.86	6593390	115257	6593421	128155.07
FALSE	TRUE	NA	tar1att2_2	att_1	word_ttq_pos_4	1	528.7	37	keydown	left_down	NA	NA	NA	1	42	0	FALSE	151214.12	151729.845	152275.185	152429.305	NA	69	152429.7	6593390	115257	6593421	129370.91
FALSE	TRUE	NA	tar1att2_2	tar_1	nobrand_p_8_test	1	510.97	39	keydown	right_down	NA	NA	NA	1	43	0	FALSE	152430.015	153161.945	153799.855	153961.21	NA	70	153961.5	6593390	115257	6593422	130902.71
FALSE	TRUE	NA	tar1att2_2	tar_1	nobrand_p_4_test	1	461.285	39	keydown	right_down	NA	NA	NA	1	44	0	FALSE	153961.895	154843.81	155322.245	155476.58	NA	71	155476.82	6593390	115257	6593422	132418.03
FALSE	TRUE	NA	tar1att2_2	tar_1	baisha_p_10_test	1	423.04	39	keydown	right_down	NA	NA	NA	1	45	0	FALSE	155477.185	156209.3	156649.005	156808.85	NA	72	156809.085	6593390	115257	6593422	133750.295
FALSE	TRUE	NA	tar1att2_2	att_1	word_ttq_pos_7	1	597.635	37	keydown	left_down	NA	NA	NA	1	46	0	FALSE	156809.365	157674.605	158288.88	158440.705	NA	73	158440.94	6593390	115257	6593423	135382.15
FALSE	TRUE	NA	tar1att2_2	att_1	word_ttq_pos_10	1	506.58	37	keydown	left_down	NA	NA	NA	1	47	0	FALSE	158441.215	159206.66	159729.87	159889.405	NA	74	159889.685	6593390	115257	6593423	136830.895
FALSE	TRUE	NA	tar1att2_2	tar_1	nobrand_a_6_test	1	479.725	39	keydown	right_down	NA	NA	NA	1	48	0	FALSE	159890.025	160605.51	161208.68	161354.79	NA	75	161355.08	6593390	115257	6593424	138296.29
FALSE	TRUE	NA	tar1att2_2	att_1	word_ttq_pos_7	1	509.11	37	keydown	left_down	NA	NA	NA	1	49	0	FALSE	161355.295	161970.965	162496.775	162653.765	NA	76	162654.005	6593390	115257	6593424	139595.215
FALSE	TRUE	NA	tar1att2_2	tar_1	baisha_a_8_test	1	513.855	39	keydown	right_down	NA	NA	NA	1	50	0	FALSE	162654.385	163403.06	164031.14	164185.675	NA	77	164185.92	6593390	115257	6593424	141127.13
FALSE	TRUE	NA	tar1att2_2	att_1	word_ttq_pos_6	1	514.4	37	keydown	left_down	NA	NA	NA	1	51	0	FALSE	164186.195	164968.35	165499.41	165651.1	NA	78	165651.34	6593390	115257	6593425	142592.55
FALSE	TRUE	NA	tar1att2_2	tar_1	huanghelou_a_8_test	2	485.755	37	keydown	left_down	NA	NA	NA	1	52	0	FALSE	165651.73	166500.3	167108.23	167266.32	NA	79	167266.56	6593390	115257	6593425	144207.77
FALSE	TRUE	NA	tar1att2_2	att_1	word_ttq_pos_10	1	560.4	37	keydown	left_down	NA	NA	NA	1	53	0	FALSE	167266.835	168215.53	168792.575	168948.21	NA	80	168948.45	6593390	115257	6593426	145889.66
FALSE	TRUE	NA	tar1att2_2	att_1	word_ttq_pos_5	1	496.975	37	keydown	left_down	NA	NA	NA	1	54	0	FALSE	168948.73	169714.24	170227.895	170380.3	NA	81	170380.54	6593390	115257	6593426	147321.75
FALSE	TRUE	NA	tar1att2_2	tar_1	liqun_a_9_test	1	581.995	39	keydown	right_down	NA	NA	NA	1	55	0	FALSE	170380.955	170929.795	171625.96	171779.07	NA	82	171779.31	6593390	115257	6593426	148720.52
FALSE	TRUE	NA	tar1att2_2	att_2	word_ttq_neg_6	1	635.695	39	keydown	right_down	NA	NA	NA	1	56	0	FALSE	171779.59	172361.96	173014.275	173161.215	NA	83	173161.45	6593390	115257	6593427	150102.66
FALSE	TRUE	NA	tar1att2_2	att_1	word_ttq_pos_8	1	507.105	37	keydown	left_down	NA	NA	NA	1	57	0	FALSE	173161.725	173877.23	174401.025	174560.04	NA	84	174560.28	6593390	115257	6593427	151501.49
FALSE	TRUE	NA	tar1att2_2	att_2	word_ttq_neg_4	1	579.83	39	keydown	right_down	NA	NA	NA	1	58	0	FALSE	174560.56	175392.57	175989.04	176141.965	NA	85	176142.205	6593390	115257	6593427	153083.415
FALSE	TRUE	NA	tar1att2_2	att_2	word_ttq_neg_7	1	613.785	39	keydown	right_down	NA	NA	NA	1	59	0	FALSE	176142.455	176991.18	177621.605	177773.88	NA	86	177774.125	6593390	115257	6593428	154715.335
FALSE	TRUE	NA	tar1att2_2	tar_1	huanghelou_p_9_test	1	587.645	39	keydown	right_down	NA	NA	NA	1	60	0	FALSE	177775.02	178756.315	179459.395	179605.61	NA	87	179605.85	6593390	115257	6593428	156547.06
FALSE	TRUE	NA	tar1att2_2	tar_1	baisha_a_5_test	1	680.955	39	keydown	right_down	NA	NA	NA	1	61	0	FALSE	179606.33	180271.71	180969.81	181120.955	NA	88	181121.21	6593390	115257	6593429	158062.42
FALSE	TRUE	NA	tar1att2_2	tar_1	yunyan_a_6_test	1	578.515	39	keydown	right_down	NA	NA	NA	1	62	0	FALSE	181121.565	181921.9	182516.525	182686.32	NA	89	182686.565	6593390	115257	6593429	159627.775
FALSE	TRUE	NA	tar1att2_2	att_1	word_ttq_pos_1	1	517.245	37	keydown	left_down	NA	NA	NA	1	63	0	FALSE	182686.805	183368.99	183902.885	184068.42	NA	90	184068.66	6593390	115257	6593429	161009.87
FALSE	TRUE	NA	tar1att2_2	att_1	word_ttq_pos_9	1	514.455	37	keydown	left_down	NA	NA	NA	1	64	0	FALSE	184068.95	185050.905	185581.97	185733.65	NA	91	185733.885	6593390	115257	6593430	162675.095
FALSE	TRUE	NA	tar1att2_2	att_2	word_ttq_neg_3	1	652.195	39	keydown	right_down	NA	NA	NA	1	65	0	FALSE	185734.16	186666.095	187334.93	187498.775	NA	92	187499.01	6593390	115257	6593430	164440.22
FALSE	TRUE	NA	tar1att2_2	att_1	word_ttq_pos_6	1	558.055	37	keydown	left_down	NA	NA	NA	1	66	0	FALSE	187499.265	188248.07	188822.755	188980.97	NA	93	188981.2	6593390	115257	6593431	165922.41
FALSE	TRUE	NA	tar1att2_2	att_1	word_ttq_pos_4	1	472.005	37	keydown	left_down	NA	NA	NA	1	67	0	FALSE	188981.465	189863.38	190352.045	190512.825	NA	94	190513.06	6593390	115257	6593431	167454.27
FALSE	TRUE	NA	tar1att2_2	tar_1	nobrand_a_7_test	1	911.495	39	keydown	right_down	NA	NA	NA	1	68	0	FALSE	190513.38	191345.375	192379.6	192544.39	NA	95	192544.63	6593390	115257	6593431	169485.84
FALSE	TRUE	NA	tar1att2_2	att_2	word_ttq_neg_9	1	642.725	39	keydown	right_down	NA	NA	NA	1	69	0	FALSE	192544.88	193077.22	193736.695	193893.21	NA	96	193893.445	6593390	115257	6593432	170834.655
FALSE	TRUE	NA	tar1att2_2	att_1	word_ttq_pos_9	1	514.35	37	keydown	left_down	NA	NA	NA	1	70	0	FALSE	193893.73	194509.35	195040.35	195192.04	NA	97	195192.285	6593390	115257	6593432	172133.495
FALSE	TRUE	NA	tar1att2_2	att_1	word_ttq_pos_1	1	507.81	37	keydown	left_down	NA	NA	NA	1	71	0	FALSE	195192.55	195941.42	196465.88	196624.185	NA	98	196624.42	6593390	115257	6593432	173565.63
TRUE	TRUE	NA	tar1att1_1	tar_1	liqun_p_6_test	1	1146.17	37	keydown	left_down	NA	NA	NA	0	0	0	FALSE	25709.45	26329.1	27579.46	27744.12	NA	0	27744.595	6594159	115257	6594164	0
TRUE	TRUE	NA	tar1att1_1	tar_1	liqun_a_4_test	1	594.8	37	keydown	left_down	NA	NA	NA	0	1	0	FALSE	27745.145	28643.285	29340.605	29509.245	NA	1	29509.535	6594159	115257	6594165	1764.94
TRUE	TRUE	NA	tar1att1_1	tar_1	liqun_p_7_test	1	679.97	37	keydown	left_down	NA	NA	NA	0	2	0	FALSE	29509.945	30508.31	31288.945	31440.96	NA	2	31441.18	6594159	115257	6594165	3696.585
TRUE	TRUE	NA	tar1att1_1	att_1	word_ttq_app_4	1	1198.225	37	keydown	left_down	NA	NA	NA	0	3	0	FALSE	31441.61	32440.035	33655.04	33822.11	NA	3	33822.325	6594159	115257	6594166	6077.73
TRUE	TRUE	NA	tar1att1_1	att_2	word_ttq_avo_1	1	907.86	39	keydown	right_down	NA	NA	NA	0	4	0	FALSE	33822.605	34654.695	35579.215	35737.125	NA	4	35737.325	6594159	115257	6594166	7992.73
TRUE	TRUE	NA	tar1att1_1	att_2	word_ttq_avo_5	2	923.62	37	keydown	left_down	NA	NA	NA	0	5	0	FALSE	35737.53	36719.68	37659.89	37868.595	NA	5	37868.8	6594159	115257	6594167	10124.205
TRUE	TRUE	NA	tar1att1_1	att_2	word_ttq_avo_8	1	762.9	39	keydown	right_down	NA	NA	NA	0	6	0	FALSE	37869.02	38767.775	39547.32	39700.355	NA	6	39700.575	6594159	115257	6594167	11955.98
TRUE	TRUE	NA	tar1att1_1	tar_1	liqun_a_10_test	1	622.715	37	keydown	left_down	NA	NA	NA	0	7	0	FALSE	39700.915	40299.8	41021.065	41182.345	NA	7	41182.565	6594159	115257	6594168	13437.97
TRUE	TRUE	NA	tar1att1_1	att_2	word_ttq_avo_6	2	1282	37	keydown	left_down	NA	NA	NA	0	8	0	FALSE	41182.825	41865.11	43163.77	43313.805	NA	8	43314.045	6594159	115257	6594168	15569.45
TRUE	TRUE	NA	tar1att1_1	att_2	word_ttq_avo_4	2	898.935	37	keydown	left_down	NA	NA	NA	0	9	0	FALSE	43314.25	44196.445	45112	45278.815	NA	9	45279.06	6594159	115257	6594169	17534.465
TRUE	TRUE	NA	tar1att1_1	att_2	word_ttq_avo_3	1	1014.975	39	keydown	right_down	NA	NA	NA	0	10	0	FALSE	45279.475	45944.95	46976.52	47127.165	NA	10	47127.36	6594159	115257	6594169	19382.765
TRUE	TRUE	NA	tar1att1_1	att_1	word_ttq_app_8	1	649.655	37	keydown	left_down	NA	NA	NA	0	11	0	FALSE	47127.58	48043.04	48709.355	48859.005	NA	11	48859.215	6594159	115257	6594169	21114.62
TRUE	TRUE	NA	tar1att1_1	att_1	word_ttq_app_3	1	778.995	37	keydown	left_down	NA	NA	NA	0	12	0	FALSE	48859.43	49674.965	50470.615	50640.805	NA	12	50641.025	6594159	115257	6594170	22896.43
TRUE	TRUE	NA	tar1att1_1	att_2	word_ttq_avo_10	2	863.09	37	keydown	left_down	NA	NA	NA	0	13	0	FALSE	50641.265	51306.845	52186.595	52339.435	NA	13	52339.625	6594159	115257	6594170	24595.03
TRUE	TRUE	NA	tar1att1_1	att_2	word_ttq_avo_2	1	1030.605	39	keydown	right_down	NA	NA	NA	0	14	0	FALSE	52339.83	52838.84	53886.12	54037.79	NA	14	54038.01	6594159	115257	6594171	26293.415
TRUE	TRUE	NA	tar1att1_1	tar_1	yuxi_p_2_test	1	574.98	37	keydown	left_down	NA	NA	NA	0	15	0	FALSE	54038.545	54937.045	55625.95	55786.275	NA	15	55786.495	6594159	115257	6594171	28041.9
TRUE	TRUE	NA	tar1att1_1	att_1	word_ttq_app_10	1	896.01	37	keydown	left_down	NA	NA	NA	0	16	0	FALSE	55786.745	56702.165	57614.82	57784.555	NA	16	57784.77	6594159	115257	6594172	30040.175
TRUE	TRUE	NA	tar1att1_1	tar_1	hongshuangxi_a_5_test	1	488.62	37	keydown	left_down	NA	NA	NA	0	17	0	FALSE	57785.11	58633.785	59233.64	59383.12	NA	17	59383.35	6594159	115257	6594172	31638.755
TRUE	TRUE	NA	tar1att1_1	tar_1	zhonghua_p_6_test	1	491.95	37	keydown	left_down	NA	NA	NA	0	18	0	FALSE	59383.71	60299.025	60911.87	61065.08	NA	18	61065.345	6594159	115257	6594172	33320.75
TRUE	TRUE	NA	tar1att1_1	att_2	word_ttq_avo_7	1	935.405	39	keydown	right_down	NA	NA	NA	0	19	0	FALSE	61065.585	61747.83	62699.915	62863.485	NA	19	62863.71	6594159	115257	6594173	35119.115
TRUE	TRUE	NA	tar1att1_1	att_1	word_ttq_app_6	1	772.15	37	keydown	left_down	NA	NA	NA	0	20	0	FALSE	62863.96	63829.25	64618.03	64762.02	NA	20	64762.23	6594159	115257	6594173	37017.635
TRUE	TRUE	NA	tar1att1_1	att_2	word_ttq_avo_9	1	730.9	39	keydown	right_down	NA	NA	NA	0	21	0	FALSE	64762.45	65344.615	66092.185	66244.02	NA	21	66244.245	6594159	115257	6594174	38499.65
TRUE	TRUE	NA	tar1att1_1	att_1	word_ttq_app_2	1	889.995	37	keydown	left_down	NA	NA	NA	0	22	0	FALSE	66244.495	67193.07	68099.605	68258.75	NA	22	68258.97	6594159	115257	6594174	40514.375
TRUE	TRUE	NA	tar1att1_1	att_1	word_ttq_app_9	1	1055.325	37	keydown	left_down	NA	NA	NA	0	23	0	FALSE	68259.21	69124.625	70196.865	70356.89	NA	23	70357.095	6594159	115257	6594175	42612.5
TRUE	TRUE	NA	tar1att1_2	att_2	word_ttq_avo_9	1	1168.225	39	keydown	right_down	NA	NA	NA	1	0	0	FALSE	79768.35	80581.535	81766.475	81930.125	NA	24	81930.325	6594159	115257	6594177	54185.73
TRUE	TRUE	NA	tar1att1_2	att_1	word_ttq_app_9	1	670.395	37	keydown	left_down	NA	NA	NA	1	1	0	FALSE	81930.545	82529.555	83216.635	83378.88	NA	25	83379.12	6594159	115257	6594177	55634.525
TRUE	TRUE	NA	tar1att1_2	tar_1	nanjing_p_10_test	1	478.365	37	keydown	left_down	NA	NA	NA	1	2	0	FALSE	83379.46	84178.14	84756.81	84927.485	NA	26	84927.68	6594159	115257	6594177	57183.085
TRUE	TRUE	NA	tar1att1_2	att_2	word_ttq_avo_10	1	1163.875	39	keydown	right_down	NA	NA	NA	1	3	0	FALSE	84927.89	85826.82	87007.41	87158.89	NA	27	87159.09	6594159	115257	6594178	59414.495
TRUE	TRUE	NA	tar1att1_2	att_2	word_ttq_avo_1	2	976.61	37	keydown	left_down	NA	NA	NA	1	4	0	FALSE	87159.56	87658.48	88651.72	88807.43	NA	28	88807.655	6594159	115257	6594178	61063.06
TRUE	TRUE	NA	tar1att1_2	att_2	word_ttq_avo_9	1	888.335	39	keydown	right_down	NA	NA	NA	1	5	0	FALSE	88807.91	89756.56	90661.54	90822.39	NA	29	90822.595	6594159	115257	6594179	63078
TRUE	TRUE	NA	tar1att1_2	tar_1	nobrand_p_10_test	1	853.03	37	keydown	left_down	NA	NA	NA	1	6	0	FALSE	90822.92	91488.405	92445.115	92604.105	NA	30	92604.425	6594159	115257	6594179	64859.83
TRUE	TRUE	NA	tar1att1_2	att_1	word_ttq_app_8	1	744.245	37	keydown	left_down	NA	NA	NA	1	7	0	FALSE	92604.66	93569.97	94330.875	94485.845	NA	31	94486.065	6594159	115257	6594180	66741.47
TRUE	TRUE	NA	tar1att1_2	att_2	word_ttq_avo_2	1	746.435	39	keydown	right_down	NA	NA	NA	1	8	0	FALSE	94486.33	95318.425	96081.53	96234.29	NA	32	96234.61	6594159	115257	6594180	68490.015
TRUE	TRUE	NA	tar1att1_2	att_2	word_ttq_avo_6	1	708.645	39	keydown	right_down	NA	NA	NA	1	9	0	FALSE	96234.845	96733.845	97459.165	97616.385	NA	33	97616.61	6594159	115257	6594181	69872.015
TRUE	TRUE	NA	tar1att1_2	tar_1	liqun_a_10_test	1	496.265	37	keydown	left_down	NA	NA	NA	1	10	0	FALSE	97617.12	98382.41	98895.29	99065.15	NA	34	99065.355	6594159	115257	6594181	71320.76
TRUE	TRUE	NA	tar1att1_2	att_2	word_ttq_avo_2	1	666.96	39	keydown	right_down	NA	NA	NA	1	11	0	FALSE	99065.56	99681.26	100364.915	100530.53	NA	35	100530.755	6594159	115257	6594181	72786.16
TRUE	TRUE	NA	tar1att1_2	att_2	word_ttq_avo_4	1	831.11	39	keydown	right_down	NA	NA	NA	1	12	0	FALSE	100530.965	101030.1	101878.245	102029.245	NA	36	102029.445	6594159	115257	6594182	74284.85
TRUE	TRUE	NA	tar1att1_2	att_2	word_ttq_avo_3	1	934.445	39	keydown	right_down	NA	NA	NA	1	13	0	FALSE	102029.655	102895.155	103846.265	104010.83	NA	37	104011.03	6594159	115257	6594182	76266.435
TRUE	TRUE	NA	tar1att1_2	att_2	word_ttq_avo_2	1	607.195	39	keydown	right_down	NA	NA	NA	1	14	0	FALSE	104011.245	104643.61	105267.465	105426.335	NA	38	105426.565	6594159	115257	6594183	77681.97
TRUE	TRUE	NA	tar1att1_2	tar_1	yuxi_p_5_test	1	567.815	37	keydown	left_down	NA	NA	NA	1	15	0	FALSE	105426.86	106042.41	106725.765	106891.63	NA	39	106891.84	6594159	115257	6594183	79147.245
TRUE	TRUE	NA	tar1att1_2	att_1	word_ttq_app_3	1	874.085	37	keydown	left_down	NA	NA	NA	1	16	0	FALSE	106892.05	107557.705	108448.455	108606.86	NA	40	108607.08	6594159	115257	6594183	80862.485
TRUE	TRUE	NA	tar1att1_2	tar_1	liqun_p_2_test	1	505	37	keydown	left_down	NA	NA	NA	1	17	0	FALSE	108607.4	109539.32	110154.62	110305.32	NA	41	110305.525	6594159	115257	6594184	82560.93
TRUE	TRUE	NA	tar1att1_2	att_2	word_ttq_avo_4	1	626.805	39	keydown	right_down	NA	NA	NA	1	18	0	FALSE	110305.735	110921.48	111565.495	111737.375	NA	42	111737.575	6594159	115257	6594184	83992.98
TRUE	TRUE	NA	tar1att1_2	tar_1	liqun_p_6_test	1	535.615	37	keydown	left_down	NA	NA	NA	1	19	0	FALSE	111737.86	112486.785	113141.28	113304.04	NA	43	113304.225	6594159	115257	6594185	85559.63
TRUE	TRUE	NA	tar1att1_2	att_1	word_ttq_app_6	1	969.29	37	keydown	left_down	NA	NA	NA	1	20	0	FALSE	113304.435	114201.915	115187.895	115350.93	NA	44	115351.125	6594159	115257	6594185	87606.53
TRUE	TRUE	NA	tar1att1_2	att_2	word_ttq_avo_3	1	584.905	39	keydown	right_down	NA	NA	NA	1	21	0	FALSE	115351.33	116216.8	116818.38	116982.85	NA	45	116983.18	6594159	115257	6594185	89238.585
TRUE	TRUE	NA	tar1att1_2	att_2	word_ttq_avo_7	2	453.51	37	keydown	left_down	NA	NA	NA	1	22	0	FALSE	116983.525	117765.475	118236.03	118398.27	NA	46	118398.465	6594159	115257	6594186	90653.87
TRUE	TRUE	NA	tar1att1_2	att_2	word_ttq_avo_8	3	null	NA	NA	NA	right_down	7.155	39	1	23	0	TRUE	118398.67	118964.42	120463.275	120590.92	NA	47	120591.585	6594159	115257	6594186	92846.99
TRUE	TRUE	NA	tar1att1_2	att_2	word_ttq_avo_8	1	617.985	39	keydown	right_down	NA	NA	NA	1	23	1	FALSE	118398.67	120591.61	121230.935	121379.025	NA	48	121379.26	6594159	115257	6594187	93634.665
TRUE	TRUE	NA	tar1att1_2	att_1	word_ttq_app_7	1	817.44	37	keydown	left_down	NA	NA	NA	1	24	0	FALSE	121379.48	122078.405	122912.475	123060.86	NA	49	123061.09	6594159	115257	6594187	95316.495
TRUE	TRUE	NA	tar1att1_2	tar_1	yuxi_p_2_test	1	606.105	37	keydown	left_down	NA	NA	NA	1	25	0	FALSE	123061.34	123810.225	124432.99	124592.855	NA	50	124593.055	6594159	115257	6594187	96848.46
TRUE	TRUE	NA	tar1att1_2	att_1	word_ttq_app_9	1	686.735	37	keydown	left_down	NA	NA	NA	1	26	0	FALSE	124593.265	125442.135	126145.53	126308.035	NA	51	126308.24	6594159	115257	6594188	98563.645
TRUE	TRUE	NA	tar1att1_2	tar_1	hongshuangxi_a_5_test	1	513.385	37	keydown	left_down	NA	NA	NA	1	27	0	FALSE	126308.5	127190.87	127720.62	127873.355	NA	52	127873.98	6594159	115257	6594188	100129.385
TRUE	TRUE	NA	tar1att1_2	att_2	word_ttq_avo_10	1	677.875	39	keydown	right_down	NA	NA	NA	1	28	0	FALSE	127874.195	128456.13	129150.675	129322.045	NA	53	129322.27	6594159	115257	6594189	101577.675
TRUE	TRUE	NA	tar1att1_2	att_2	word_ttq_avo_6	1	773.5	39	keydown	right_down	NA	NA	NA	1	29	0	FALSE	129322.58	130204.62	130994.745	131137.14	NA	54	131137.345	6594159	115257	6594189	103392.75
TRUE	TRUE	NA	tar1att1_2	tar_1	nobrand_a_7_test	1	690.055	37	keydown	left_down	NA	NA	NA	1	30	0	FALSE	131137.605	131869.86	132670.915	132819	NA	55	132819.205	6594159	115257	6594189	105074.61
TRUE	TRUE	NA	tar1att1_2	tar_1	liqun_p_6_test	1	493.72	37	keydown	left_down	NA	NA	NA	1	31	0	FALSE	132819.525	133634.98	134145.455	134301.075	NA	56	134301.3	6594159	115257	6594190	106556.705
TRUE	TRUE	NA	tar1att1_2	tar_1	nanjing_a_9_test	1	480.83	37	keydown	left_down	NA	NA	NA	1	32	0	FALSE	134301.96	135283.505	135885.12	136032.865	NA	57	136033.06	6594159	115257	6594190	108288.465
TRUE	TRUE	NA	tar1att1_2	att_2	word_ttq_avo_8	2	904.51	37	keydown	left_down	NA	NA	NA	1	33	0	FALSE	136033.29	136715.61	137636.785	137797.985	NA	58	137798.21	6594159	115257	6594191	110053.615
TRUE	TRUE	NA	tar1att1_2	att_1	word_ttq_app_5	1	718.425	37	keydown	left_down	NA	NA	NA	1	34	0	FALSE	137798.47	138497.39	139232.46	139396.625	NA	59	139396.855	6594159	115257	6594191	111652.26
TRUE	TRUE	NA	tar1att1_2	att_1	word_ttq_app_3	2	561.255	39	keydown	right_down	NA	NA	NA	1	35	0	FALSE	139397.115	139929.445	140507.385	140662.165	NA	60	140662.37	6594159	115257	6594191	112917.775
TRUE	TRUE	NA	tar1att1_2	att_2	word_ttq_avo_1	1	638.355	39	keydown	right_down	NA	NA	NA	1	36	0	FALSE	140662.59	141561.355	142216.345	142377.335	NA	61	142377.85	6594159	115257	6594192	114633.255
TRUE	TRUE	NA	tar1att1_2	att_1	word_ttq_app_6	1	840.295	37	keydown	left_down	NA	NA	NA	1	37	0	FALSE	142378.075	143309.855	144166.795	144325.62	NA	62	144325.815	6594159	115257	6594192	116581.22
TRUE	TRUE	NA	tar1att1_2	tar_1	nobrand_a_2_test	1	647.84	37	keydown	left_down	NA	NA	NA	1	38	0	FALSE	144326.125	144925.12	145700.715	145857.61	NA	63	145857.81	6594159	115257	6594193	118113.215
TRUE	TRUE	NA	tar1att1_2	att_1	word_ttq_app_10	1	650.63	37	keydown	left_down	NA	NA	NA	1	39	0	FALSE	145858.12	146756.85	147424.125	147589.455	NA	64	147589.645	6594159	115257	6594193	119845.05
TRUE	TRUE	NA	tar1att1_2	tar_1	zhonghua_p_6_test	1	481.32	37	keydown	left_down	NA	NA	NA	1	40	0	FALSE	147589.925	148488.62	148986.62	149138.155	NA	65	149138.35	6594159	115257	6594194	121393.755
TRUE	TRUE	NA	tar1att1_2	att_1	word_ttq_app_2	1	600.95	37	keydown	left_down	NA	NA	NA	1	41	0	FALSE	149138.56	149937.62	150554.965	150703.41	NA	66	150703.61	6594159	115257	6594194	122959.015
TRUE	TRUE	NA	tar1att1_2	att_1	word_ttq_app_1	1	560.825	37	keydown	left_down	NA	NA	NA	1	42	0	FALSE	150703.82	151519.305	152096.8	152252.02	NA	67	152252.22	6594159	115257	6594194	124507.625
TRUE	TRUE	NA	tar1att1_2	tar_1	hongshuangxi_a_3_test	1	603.65	37	keydown	left_down	NA	NA	NA	1	43	0	FALSE	152252.47	152768.29	153486.15	153634.17	NA	68	153634.405	6594159	115257	6594195	125889.81
TRUE	TRUE	NA	tar1att1_2	att_2	word_ttq_avo_6	1	651.175	39	keydown	right_down	NA	NA	NA	1	44	0	FALSE	153634.66	154383.77	155051.36	155216.145	NA	69	155216.425	6594159	115257	6594195	127471.83
TRUE	TRUE	NA	tar1att1_2	att_2	word_ttq_avo_3	1	864.03	39	keydown	right_down	NA	NA	NA	1	45	0	FALSE	155216.685	155832.225	156712.93	156864.7	NA	70	156864.895	6594159	115257	6594195	129120.3
TRUE	TRUE	NA	tar1att1_2	att_2	word_ttq_avo_9	1	559.76	39	keydown	right_down	NA	NA	NA	1	46	0	FALSE	156865.11	157480.805	158057.635	158213.575	NA	71	158213.81	6594159	115257	6594196	130469.215
TRUE	TRUE	NA	tar1att1_2	att_2	word_ttq_avo_5	1	1027.635	39	keydown	right_down	NA	NA	NA	1	47	0	FALSE	158214.04	158896.24	159940.485	160095.18	NA	72	160095.375	6594159	115257	6594196	132350.78
TRUE	TRUE	NA	tar1att1_2	att_2	word_ttq_avo_5	1	573.5	39	keydown	right_down	NA	NA	NA	1	48	0	FALSE	160095.58	160811.255	161401.405	161560.645	NA	73	161560.835	6594159	115257	6594197	133816.24
TRUE	TRUE	NA	tar1att1_2	tar_1	hongshuangxi_a_6_test	1	499.99	37	keydown	left_down	NA	NA	NA	1	49	0	FALSE	161561.135	162143.43	162767.195	162926.045	NA	74	162926.245	6594159	115257	6594197	135181.65
TRUE	TRUE	NA	tar1att1_2	att_2	word_ttq_avo_5	1	642.915	39	keydown	right_down	NA	NA	NA	1	50	0	FALSE	162927.18	163742.015	164402.26	164557.96	NA	75	164558.155	6594159	115257	6594197	136813.56
TRUE	TRUE	NA	tar1att1_2	att_1	word_ttq_app_4	1	623.37	37	keydown	left_down	NA	NA	NA	1	51	0	FALSE	164558.375	165307.295	165947.315	166106.67	NA	76	166106.89	6594159	115257	6594198	138362.295
TRUE	TRUE	NA	tar1att1_2	att_2	word_ttq_avo_7	1	622.05	39	keydown	right_down	NA	NA	NA	1	52	0	FALSE	166107.15	167039.105	167678.255	167838.42	NA	77	167838.65	6594159	115257	6594198	140094.055
TRUE	TRUE	NA	tar1att1_2	att_1	word_ttq_app_1	1	500.795	37	keydown	left_down	NA	NA	NA	1	53	0	FALSE	167838.905	168687.735	169205.155	169370.515	NA	78	169370.735	6594159	115257	6594199	141626.14
TRUE	TRUE	NA	tar1att1_2	att_1	word_ttq_app_4	1	433.315	37	keydown	left_down	NA	NA	NA	1	54	0	FALSE	169370.975	170186.33	170636.325	170802.515	NA	79	170802.735	6594159	115257	6594199	143058.14
TRUE	TRUE	NA	tar1att1_2	att_1	word_ttq_app_7	1	549.325	37	keydown	left_down	NA	NA	NA	1	55	0	FALSE	170802.95	171518.52	172084.52	172234.56	NA	80	172234.78	6594159	115257	6594199	144490.185
TRUE	TRUE	NA	tar1att1_2	att_2	word_ttq_avo_7	1	589.5	39	keydown	right_down	NA	NA	NA	1	56	0	FALSE	172235.01	173167.18	173773.28	173933.115	NA	81	173933.315	6594159	115257	6594200	146188.72
TRUE	TRUE	NA	tar1att1_2	att_1	word_ttq_app_8	1	549.58	37	keydown	left_down	NA	NA	NA	1	57	0	FALSE	173933.535	174465.955	175032.18	175198.67	NA	82	175198.9	6594159	115257	6594200	147454.305
TRUE	TRUE	NA	tar1att1_2	att_1	word_ttq_app_10	1	446.145	37	keydown	left_down	NA	NA	NA	1	58	0	FALSE	175199.115	175998.02	176460.79	176614.075	NA	83	176614.27	6594159	115257	6594200	148869.675
TRUE	TRUE	NA	tar1att1_2	tar_1	zhonghua_p_4_test	1	473.98	37	keydown	left_down	NA	NA	NA	1	59	0	FALSE	176614.595	177147.01	177728.1	177896.3	NA	84	177896.5	6594159	115257	6594201	150151.905
TRUE	TRUE	NA	tar1att1_2	att_1	word_ttq_app_5	1	594.72	37	keydown	left_down	NA	NA	NA	1	60	0	FALSE	177896.71	178845.5	179457.255	179628.15	NA	85	179628.37	6594159	115257	6594201	151883.775
TRUE	TRUE	NA	tar1att1_2	att_1	word_ttq_app_1	1	585.215	37	keydown	left_down	NA	NA	NA	1	61	0	FALSE	179628.63	180444.105	181045.975	181193.42	NA	86	181193.615	6594159	115257	6594202	153449.02
TRUE	TRUE	NA	tar1att1_2	att_1	word_ttq_app_2	1	441.8	37	keydown	left_down	NA	NA	NA	1	62	0	FALSE	181193.84	181726.605	182184.77	182342.42	NA	87	182342.62	6594159	115257	6594202	154598.025
TRUE	TRUE	NA	tar1att1_2	att_2	word_ttq_avo_8	2	598.525	37	keydown	left_down	NA	NA	NA	1	63	0	FALSE	182342.83	183241.63	183856.78	184024.325	NA	88	184024.54	6594159	115257	6594202	156279.945
TRUE	TRUE	NA	tar1att1_2	tar_1	hongshuangxi_p_10_test	1	535.54	37	keydown	left_down	NA	NA	NA	1	64	0	FALSE	184024.885	184990.11	185636.945	185806.065	NA	89	185806.265	6594159	115257	6594203	158061.67
TRUE	TRUE	NA	tar1att1_2	att_2	word_ttq_avo_10	1	1067.315	39	keydown	right_down	NA	NA	NA	1	65	0	FALSE	185806.475	186338.945	187422.915	187587.875	NA	90	187588.065	6594159	115257	6594203	159843.47
TRUE	TRUE	NA	tar1att1_2	att_2	word_ttq_avo_4	1	947.9	39	keydown	right_down	NA	NA	NA	1	66	0	FALSE	187588.28	188487.02	189451.575	189619.835	NA	91	189620.06	6594159	115257	6594204	161875.465
TRUE	TRUE	NA	tar1att1_2	tar_1	nobrand_a_4_test	1	599.08	37	keydown	left_down	NA	NA	NA	1	67	0	FALSE	189620.925	190503.02	191213.41	191367.9	NA	92	191368.13	6594159	115257	6594204	163623.535
TRUE	TRUE	NA	tar1att1_2	tar_1	liqun_a_4_test	1	514.3	37	keydown	left_down	NA	NA	NA	1	68	0	FALSE	191368.72	192067.28	192695.935	192849.925	NA	93	192850.115	6594159	115257	6594204	165105.52
TRUE	TRUE	NA	tar1att1_2	tar_1	liqun_a_1_test	1	488.67	37	keydown	left_down	NA	NA	NA	1	69	0	FALSE	192850.4	193665.86	194273.02	194431.85	NA	94	194432.05	6594159	115257	6594205	166687.455
TRUE	TRUE	NA	tar1att1_2	att_2	word_ttq_avo_1	1	606.805	39	keydown	right_down	NA	NA	NA	1	70	0	FALSE	194432.255	195297.785	195921.25	196080.435	NA	95	196080.68	6594159	115257	6594205	168336.085
TRUE	TRUE	NA	tar1att1_2	tar_1	liqun_p_7_test	1	506.655	37	keydown	left_down	NA	NA	NA	1	71	0	FALSE	196081.005	196663.25	197268.64	197429.225	NA	96	197429.42	6594159	115257	6594206	169684.825
TRUE	TRUE	NA	tar1att2_1	att_1	word_ttq_app_5	4	990.765	17	keydown	invalid_key	right_down	2548.665	39	2	0	0	TRUE	221673.95	222373.815	223381.27	226113.14	NA	97	226113.435	6594159	115257	6594209	198368.84
TRUE	TRUE	NA	tar1att2_1	att_1	word_ttq_app_5	1	765.645	37	keydown	left_down	NA	NA	NA	2	0	1	FALSE	221673.95	226113.47	226903.435	227070.065	NA	98	227070.295	6594159	115257	6594209	199325.7
TRUE	TRUE	NA	tar1att2_1	att_2	word_ttq_avo_6	1	874.405	39	keydown	right_down	NA	NA	NA	2	1	0	FALSE	227070.54	228002.535	228893.575	229051.675	NA	99	229051.89	6594159	115257	6594209	201307.295
TRUE	TRUE	NA	tar1att2_1	att_1	word_ttq_app_9	1	574.16	37	keydown	left_down	NA	NA	NA	2	2	0	FALSE	229052.1	229784.35	230375.17	230533.685	NA	100	230533.885	6594159	115257	6594210	202789.29
TRUE	TRUE	NA	tar1att2_1	tar_1	liqun_p_6_test	1	839.17	39	keydown	right_down	NA	NA	NA	2	3	0	FALSE	230534.135	231066.535	231922.66	232082.345	NA	101	232082.57	6594159	115257	6594210	204337.975
TRUE	TRUE	NA	tar1att2_1	att_1	word_ttq_app_2	1	605.955	37	keydown	left_down	NA	NA	NA	2	4	0	FALSE	232082.82	232864.965	233487.555	233647.62	NA	102	233647.86	6594159	115257	6594211	205903.265
TRUE	TRUE	NA	tar1att2_1	att_2	word_ttq_avo_9	1	676.845	39	keydown	right_down	NA	NA	NA	2	5	0	FALSE	233648.125	234563.5	235257	235412.785	NA	103	235412.98	6594159	115257	6594211	207668.385
TRUE	TRUE	NA	tar1att2_1	tar_1	zhonghua_p_6_test	1	1041.93	39	keydown	right_down	NA	NA	NA	2	6	0	FALSE	235413.23	236178.745	237329.98	237477.62	NA	104	237477.82	6594159	115257	6594212	209733.225
TRUE	TRUE	NA	tar1att2_1	att_1	word_ttq_app_1	1	688	37	keydown	left_down	NA	NA	NA	2	7	0	FALSE	237478.025	237993.86	238698.51	238859.745	NA	105	238859.97	6594159	115257	6594212	211115.375
TRUE	TRUE	NA	tar1att2_1	att_1	word_ttq_app_4	1	597.535	37	keydown	left_down	NA	NA	NA	2	8	0	FALSE	238860.415	239825.59	240439.775	240591.58	NA	106	240591.81	6594159	115257	6594212	212847.215
TRUE	TRUE	NA	tar1att2_1	att_1	word_ttq_app_3	1	676.02	37	keydown	left_down	NA	NA	NA	2	9	0	FALSE	240592.04	241540.75	242233.425	242389.935	NA	107	242390.13	6594159	115257	6594213	214645.535
TRUE	TRUE	NA	tar1att2_1	att_2	word_ttq_avo_8	1	637.35	39	keydown	right_down	NA	NA	NA	2	10	0	FALSE	242390.355	243289.23	243943.23	244105.165	NA	108	244105.365	6594159	115257	6594213	216360.77
TRUE	TRUE	NA	tar1att2_1	tar_1	hongshuangxi_a_5_test	1	817.99	39	keydown	right_down	NA	NA	NA	2	11	0	FALSE	244105.615	244654.675	245583.84	245753.705	NA	109	245753.92	6594159	115257	6594214	218009.325
TRUE	TRUE	NA	tar1att2_1	att_1	word_ttq_app_8	1	622.455	37	keydown	left_down	NA	NA	NA	2	12	0	FALSE	245754.49	246419.81	247059.195	247219.165	NA	110	247219.405	6594159	115257	6594214	219474.81
TRUE	TRUE	NA	tar1att2_1	att_1	word_ttq_app_6	1	960.48	37	keydown	left_down	NA	NA	NA	2	13	0	FALSE	247219.66	248001.745	248978.875	249134.07	NA	111	249134.33	6594159	115257	6594214	221389.735
TRUE	TRUE	NA	tar1att2_1	att_2	word_ttq_avo_1	1	658.28	39	keydown	right_down	NA	NA	NA	2	14	0	FALSE	249134.555	249850.16	250525.105	250682.75	NA	112	250682.95	6594159	115257	6594215	222938.355
TRUE	TRUE	NA	tar1att2_1	att_2	word_ttq_avo_3	1	670.87	39	keydown	right_down	NA	NA	NA	2	15	0	FALSE	250683.195	251298.865	251986.385	252148.17	NA	113	252148.415	6594159	115257	6594215	224403.82
TRUE	TRUE	NA	tar1att2_1	att_1	word_ttq_app_10	1	558.89	37	keydown	left_down	NA	NA	NA	2	16	0	FALSE	252148.675	252964.085	253539.64	253696.775	NA	114	253696.98	6594159	115257	6594216	225952.385
TRUE	TRUE	NA	tar1att2_1	tar_1	nobrand_a_7_test	1	685.61	39	keydown	right_down	NA	NA	NA	2	17	0	FALSE	253697.23	254279.595	254981.88	255145.495	NA	115	255145.72	6594159	115257	6594216	227401.125
TRUE	TRUE	NA	tar1att2_1	tar_1	nobrand_a_4_test	1	524.64	39	keydown	right_down	NA	NA	NA	2	18	0	FALSE	255146.035	256044.7	256586.03	256744.145	NA	116	256744.35	6594159	115257	6594216	228999.755
TRUE	TRUE	NA	tar1att2_1	tar_1	liqun_p_7_test	1	488.435	39	keydown	right_down	NA	NA	NA	2	19	0	FALSE	256744.625	257360.275	257865.385	258026.33	NA	117	258026.545	6594159	115257	6594217	230281.95
TRUE	TRUE	NA	tar1att2_1	att_2	word_ttq_avo_10	1	730.72	39	keydown	right_down	NA	NA	NA	2	20	0	FALSE	258026.77	258775.695	259523.07	259691.58	NA	118	259691.78	6594159	115257	6594217	231947.185
TRUE	TRUE	NA	tar1att2_1	att_2	word_ttq_avo_7	1	627.445	39	keydown	right_down	NA	NA	NA	2	21	0	FALSE	259691.995	260474.2	261118.73	261290.14	NA	119	261290.36	6594159	115257	6594218	233545.765
TRUE	TRUE	NA	tar1att2_1	att_1	word_ttq_app_7	1	667.645	37	keydown	left_down	NA	NA	NA	2	22	0	FALSE	261290.62	262072.825	262757.125	262905.44	NA	120	262905.72	6594159	115257	6594218	235161.125
TRUE	TRUE	NA	tar1att2_1	tar_1	zhonghua_p_4_test	1	674.255	39	keydown	right_down	NA	NA	NA	2	23	0	FALSE	262906	263887.995	264578.765	264737.16	NA	121	264737.355	6594159	115257	6594218	236992.76
TRUE	TRUE	NA	tar1att2_2	att_2	word_ttq_avo_6	1	734.7	39	keydown	right_down	NA	NA	NA	3	0	0	FALSE	268256.725	268800.005	269551.365	269716.185	NA	122	269716.38	6594159	115257	6594220	241971.785
TRUE	TRUE	NA	tar1att2_2	tar_1	nanjing_a_9_test	1	469.47	39	keydown	right_down	NA	NA	NA	3	1	0	FALSE	269716.625	270348.91	270835.03	270998.355	NA	123	270998.555	6594159	115257	6594220	243253.96
TRUE	TRUE	NA	tar1att2_2	att_1	word_ttq_app_1	1	733.855	37	keydown	left_down	NA	NA	NA	3	2	0	FALSE	270998.755	271847.57	272598.1	272763.495	NA	124	272763.695	6594159	115257	6594220	245019.1
TRUE	TRUE	NA	tar1att2_2	att_2	word_ttq_avo_7	1	529.155	39	keydown	right_down	NA	NA	NA	3	3	0	FALSE	272763.91	273712.625	274258.41	274412.065	NA	125	274412.285	6594159	115257	6594221	246667.69
TRUE	TRUE	NA	tar1att2_2	tar_1	nobrand_a_7_test	1	1096.69	39	keydown	right_down	NA	NA	NA	3	4	0	FALSE	274412.58	275011.51	276124.85	276293.755	NA	126	276293.95	6594159	115257	6594221	248549.355
TRUE	TRUE	NA	tar1att2_2	att_1	word_ttq_app_6	1	716.13	37	keydown	left_down	NA	NA	NA	3	5	0	FALSE	276294.155	277109.675	277842.42	277992.265	NA	127	277992.465	6594159	115257	6594222	250247.87
TRUE	TRUE	NA	tar1att2_2	att_1	word_ttq_app_9	1	626.745	37	keydown	left_down	NA	NA	NA	3	6	0	FALSE	277992.69	278924.745	279568.475	279724.09	NA	128	279724.29	6594159	115257	6594222	251979.695
TRUE	TRUE	NA	tar1att2_2	att_1	word_ttq_app_2	1	648.66	37	keydown	left_down	NA	NA	NA	3	7	0	FALSE	279724.51	280423.44	281088.735	281239.425	NA	129	281239.625	6594159	115257	6594223	253495.03
TRUE	TRUE	NA	tar1att2_2	att_2	word_ttq_avo_8	2	794.49	37	keydown	left_down	NA	NA	NA	3	8	0	FALSE	281239.835	282171.9	282983.04	283137.775	NA	130	283137.97	6594159	115257	6594223	255393.375
TRUE	TRUE	NA	tar1att2_2	att_1	word_ttq_app_4	1	1140.755	37	keydown	left_down	NA	NA	NA	3	9	0	FALSE	283138.195	283720.565	284878.13	285036.075	NA	131	285036.275	6594159	115257	6594223	257291.68
TRUE	TRUE	NA	tar1att2_2	tar_1	hongshuangxi_p_10_test	1	716.645	39	keydown	right_down	NA	NA	NA	3	10	0	FALSE	285036.54	285951.935	286685.245	286851.155	NA	132	286851.38	6594159	115257	6594224	259106.785
TRUE	TRUE	NA	tar1att2_2	att_1	word_ttq_app_6	1	903.96	37	keydown	left_down	NA	NA	NA	3	11	0	FALSE	286851.88	287350.765	288271.425	288416.49	NA	133	288416.695	6594159	115257	6594224	260672.1
TRUE	TRUE	NA	tar1att2_2	tar_1	liqun_p_6_test	1	773.305	39	keydown	right_down	NA	NA	NA	3	12	0	FALSE	288416.94	289398.895	290188.925	290348.13	NA	134	290348.355	6594159	115257	6594225	262603.76
TRUE	TRUE	NA	tar1att2_2	tar_1	liqun_p_2_test	1	785.885	39	keydown	right_down	NA	NA	NA	3	13	0	FALSE	290348.675	291297.285	292196.625	292363.02	NA	135	292363.235	6594159	115257	6594225	264618.64
TRUE	TRUE	NA	tar1att2_2	att_2	word_ttq_avo_3	1	668.91	39	keydown	right_down	NA	NA	NA	3	14	0	FALSE	292363.485	293179.01	293864.775	294028.225	NA	136	294028.43	6594159	115257	6594226	266283.835
TRUE	TRUE	NA	tar1att2_2	tar_1	hongshuangxi_a_6_test	1	568.13	39	keydown	right_down	NA	NA	NA	3	15	0	FALSE	294028.835	294744.29	295329.07	295476.98	NA	137	295477.175	6594159	115257	6594226	267732.58
TRUE	TRUE	NA	tar1att2_2	att_1	word_ttq_app_8	1	789.39	37	keydown	left_down	NA	NA	NA	3	16	0	FALSE	295477.39	296426.14	297232.165	297375.32	NA	138	297375.52	6594159	115257	6594227	269630.925
TRUE	TRUE	NA	tar1att2_2	att_2	word_ttq_avo_4	1	692.9	39	keydown	right_down	NA	NA	NA	3	17	0	FALSE	297375.76	298108.005	298817.555	298973.91	NA	139	298974.105	6594159	115257	6594227	271229.51
TRUE	TRUE	NA	tar1att2_2	att_1	word_ttq_app_10	1	905.8	37	keydown	left_down	NA	NA	NA	3	18	0	FALSE	298974.315	299656.635	300579.115	300722.375	NA	140	300722.595	6594159	115257	6594227	272978
TRUE	TRUE	NA	tar1att2_2	att_1	word_ttq_app_5	1	928.045	37	keydown	left_down	NA	NA	NA	3	19	0	FALSE	300722.85	301554.985	302499.665	302654.04	NA	141	302654.245	6594159	115257	6594228	274909.65
TRUE	TRUE	NA	tar1att2_2	tar_1	zhonghua_p_4_test	2	604.77	37	keydown	left_down	NA	NA	NA	3	20	0	FALSE	302654.49	303453.3	304074.725	304219.345	NA	142	304219.54	6594159	115257	6594228	276474.945
TRUE	TRUE	NA	tar1att2_2	att_1	word_ttq_app_1	1	787.87	37	keydown	left_down	NA	NA	NA	3	21	0	FALSE	304219.755	304935.41	305739.925	305884.535	NA	143	305884.755	6594159	115257	6594229	278140.16
TRUE	TRUE	NA	tar1att2_2	att_1	word_ttq_app_4	1	792.925	37	keydown	left_down	NA	NA	NA	3	22	0	FALSE	305885.02	306467.34	307276.97	307433.2	NA	144	307433.57	6594159	115257	6594229	279688.975
TRUE	TRUE	NA	tar1att2_2	att_2	word_ttq_avo_1	1	710.51	39	keydown	right_down	NA	NA	NA	3	23	0	FALSE	307433.96	308049.285	308776.525	308931.955	NA	145	308932.18	6594159	115257	6594229	281187.585
TRUE	TRUE	NA	tar1att2_2	tar_1	nobrand_a_2_test	1	1011.01	39	keydown	right_down	NA	NA	NA	3	24	0	FALSE	308932.46	309814.435	310842.485	310996.765	NA	146	310996.98	6594159	115257	6594230	283252.385
TRUE	TRUE	NA	tar1att2_2	att_1	word_ttq_app_3	1	841.18	37	keydown	left_down	NA	NA	NA	3	25	0	FALSE	310997.245	311729.435	312587.4	312745.255	NA	147	312745.475	6594159	115257	6594230	285000.88
TRUE	TRUE	NA	tar1att2_2	tar_1	liqun_p_7_test	1	612.685	39	keydown	right_down	NA	NA	NA	3	26	0	FALSE	312745.74	313278.1	313907.405	314060.72	NA	148	314060.94	6594159	115257	6594231	286316.345
TRUE	TRUE	NA	tar1att2_2	att_1	word_ttq_app_8	1	726.72	37	keydown	left_down	NA	NA	NA	3	27	0	FALSE	314061.175	314760.175	315503.53	315659.32	NA	149	315659.52	6594159	115257	6594231	287914.925
TRUE	TRUE	NA	tar1att2_2	att_2	word_ttq_avo_6	1	489.77	39	keydown	right_down	NA	NA	NA	3	28	0	FALSE	315659.72	316575.17	317081.625	317241.32	NA	150	317241.535	6594159	115257	6594232	289496.94
TRUE	TRUE	NA	tar1att2_2	att_1	word_ttq_app_6	1	717.675	37	keydown	left_down	NA	NA	NA	3	29	0	FALSE	317241.795	318140.485	318874.82	319039.76	NA	151	319039.985	6594159	115257	6594232	291295.39
TRUE	TRUE	NA	tar1att2_2	att_1	word_ttq_app_8	1	820.96	37	keydown	left_down	NA	NA	NA	3	30	0	FALSE	319040.22	319805.715	320643.405	320804.88	NA	152	320805.1	6594159	115257	6594232	293060.505
TRUE	TRUE	NA	tar1att2_2	tar_1	yuxi_p_5_test	1	889.745	39	keydown	right_down	NA	NA	NA	3	31	0	FALSE	320805.37	321620.855	322635.33	322786.435	NA	153	322786.67	6594159	115257	6594233	295042.075
TRUE	TRUE	NA	tar1att2_2	tar_1	nobrand_a_4_test	1	1354.855	39	keydown	right_down	NA	NA	NA	3	32	0	FALSE	322788.17	323785.625	325157.12	325317.61	NA	154	325317.825	6594159	115257	6594234	297573.23
TRUE	TRUE	NA	tar1att2_2	tar_1	liqun_a_1_test	1	679.69	39	keydown	right_down	NA	NA	NA	3	33	0	FALSE	325318.14	326316.675	327013.56	327165.955	NA	155	327166.16	6594159	115257	6594234	299421.565
TRUE	TRUE	NA	tar1att2_2	att_1	word_ttq_app_5	1	1398.835	37	keydown	left_down	NA	NA	NA	3	34	0	FALSE	327166.365	328065.2	329480.69	329630.475	NA	156	329630.735	6594159	115257	6594235	301886.14
TRUE	TRUE	NA	tar1att2_2	att_2	word_ttq_avo_3	1	637.49	39	keydown	right_down	NA	NA	NA	3	35	0	FALSE	329630.98	330246.605	330900.735	331062.67	NA	157	331062.89	6594159	115257	6594235	303318.295
TRUE	TRUE	NA	tar1att2_2	att_1	word_ttq_app_7	1	809.425	37	keydown	left_down	NA	NA	NA	3	36	0	FALSE	331063.145	331728.645	332554.73	332711.105	NA	158	332711.32	6594159	115257	6594235	304966.725
TRUE	TRUE	NA	tar1att2_2	att_2	word_ttq_avo_10	1	705.09	39	keydown	right_down	NA	NA	NA	3	37	0	FALSE	332711.58	333410.545	334132.28	334293.055	NA	159	334293.28	6594159	115257	6594236	306548.685
TRUE	TRUE	NA	tar1att2_2	att_2	word_ttq_avo_9	1	606.525	39	keydown	right_down	NA	NA	NA	3	38	0	FALSE	334293.55	335208.96	335832.14	335991.62	NA	160	335991.845	6594159	115257	6594236	308247.25
TRUE	TRUE	NA	tar1att2_2	att_1	word_ttq_app_3	1	944.85	37	keydown	left_down	NA	NA	NA	3	39	0	FALSE	335992.08	336607.715	337569.23	337740.05	NA	161	337740.265	6594159	115257	6594237	309995.67
TRUE	TRUE	NA	tar1att2_2	tar_1	liqun_a_4_test	1	972.025	39	keydown	right_down	NA	NA	NA	3	40	0	FALSE	337740.555	338290.79	339279.325	339438.545	NA	162	339438.735	6594159	115257	6594237	311694.14
TRUE	TRUE	NA	tar1att2_2	att_2	word_ttq_avo_8	1	873.97	39	keydown	right_down	NA	NA	NA	3	41	0	FALSE	339438.95	340137.99	341028.61	341187.08	NA	163	341187.3	6594159	115257	6594238	313442.705
TRUE	TRUE	NA	tar1att2_2	att_2	word_ttq_avo_2	1	612.1	39	keydown	right_down	NA	NA	NA	3	42	0	FALSE	341187.555	341869.77	342498.55	342669.095	NA	164	342669.29	6594159	115257	6594238	314924.695
TRUE	TRUE	NA	tar1att2_2	tar_1	zhonghua_p_6_test	1	807.66	39	keydown	right_down	NA	NA	NA	3	43	0	FALSE	342669.53	343168.675	343993.24	344151.155	NA	165	344151.35	6594159	115257	6594238	316406.755
TRUE	TRUE	NA	tar1att2_2	att_1	word_ttq_app_2	1	809.5	37	keydown	left_down	NA	NA	NA	3	44	0	FALSE	344151.55	344950.42	345776.735	345932.915	NA	166	345933.295	6594159	115257	6594239	318188.7
TRUE	TRUE	NA	tar1att2_2	att_2	word_ttq_avo_2	1	552.645	39	keydown	right_down	NA	NA	NA	3	45	0	FALSE	345933.545	346449.19	347018.455	347165.185	NA	167	347165.425	6594159	115257	6594239	319420.83
TRUE	TRUE	NA	tar1att2_2	tar_1	yuxi_p_2_test	1	805.54	39	keydown	right_down	NA	NA	NA	3	46	0	FALSE	347165.695	347931.225	348846.44	348996.885	NA	168	348997.08	6594159	115257	6594239	321252.485
TRUE	TRUE	NA	tar1att2_2	att_1	word_ttq_app_3	1	806.77	37	keydown	left_down	NA	NA	NA	3	47	0	FALSE	348997.27	349546.425	350369.86	350528.9	NA	169	350529.095	6594159	115257	6594240	322784.5
TRUE	TRUE	NA	tar1att2_2	att_1	word_ttq_app_2	1	752.935	37	keydown	left_down	NA	NA	NA	3	48	0	FALSE	350529.31	351111.75	351881.335	352027.6	NA	170	352027.82	6594159	115257	6594240	324283.225
TRUE	TRUE	NA	tar1att2_2	att_1	word_ttq_app_7	1	827.25	37	keydown	left_down	NA	NA	NA	3	49	0	FALSE	352028.07	352893.495	353737.43	353892.625	NA	171	353892.82	6594159	115257	6594241	326148.225
TRUE	TRUE	NA	tar1att2_2	att_2	word_ttq_avo_10	1	755.905	39	keydown	right_down	NA	NA	NA	3	50	0	FALSE	353893.035	354758.815	355531.125	355691.085	NA	172	355691.275	6594159	115257	6594241	327946.68
TRUE	TRUE	NA	tar1att2_2	tar_1	nobrand_p_10_test	1	927.745	39	keydown	right_down	NA	NA	NA	3	51	0	FALSE	355691.705	356373.775	357410.195	357572.715	NA	173	357572.935	6594159	115257	6594242	329828.34
TRUE	TRUE	NA	tar1att2_2	att_1	word_ttq_app_10	1	731.075	37	keydown	left_down	NA	NA	NA	3	52	0	FALSE	357573.15	358205.53	358953.28	359104.71	NA	174	359104.935	6594159	115257	6594242	331360.34
TRUE	TRUE	NA	tar1att2_2	att_2	word_ttq_avo_5	1	920.58	39	keydown	right_down	NA	NA	NA	3	53	0	FALSE	359105.155	359770.845	360708.08	360869.89	NA	175	360870.1	6594159	115257	6594242	333125.505
TRUE	TRUE	NA	tar1att2_2	tar_1	liqun_p_6_test	2	688.44	37	keydown	left_down	NA	NA	NA	3	54	0	FALSE	360870.365	361769.04	362474.28	362618.335	NA	176	362618.53	6594159	115257	6594243	334873.935
TRUE	TRUE	NA	tar1att2_2	att_2	word_ttq_avo_7	1	732.29	39	keydown	right_down	NA	NA	NA	3	55	0	FALSE	362618.725	363401	364149.95	364316.855	NA	177	364317.055	6594159	115257	6594243	336572.46
TRUE	TRUE	NA	tar1att2_2	att_1	word_ttq_app_9	1	815.3	37	keydown	left_down	NA	NA	NA	3	56	0	FALSE	364317.255	364932.98	365764.935	365915.43	NA	178	365915.625	6594159	115257	6594244	338171.03
TRUE	TRUE	NA	tar1att2_2	att_1	word_ttq_app_1	1	647.255	37	keydown	left_down	NA	NA	NA	3	57	0	FALSE	365915.845	366898.12	367561.855	367730.545	NA	179	367730.745	6594159	115257	6594244	339986.15
TRUE	TRUE	NA	tar1att2_2	att_2	word_ttq_avo_1	1	664.695	39	keydown	right_down	NA	NA	NA	3	58	0	FALSE	367730.945	368546.46	369227.835	369379.13	NA	180	369379.345	6594159	115257	6594245	341634.75
TRUE	TRUE	NA	tar1att2_2	att_1	word_ttq_app_5	1	963.585	37	keydown	left_down	NA	NA	NA	3	59	0	FALSE	369379.6	370061.81	371042.06	371194.195	NA	181	371194.395	6594159	115257	6594245	343449.8
TRUE	TRUE	NA	tar1att2_2	att_2	word_ttq_avo_5	1	735.895	39	keydown	right_down	NA	NA	NA	3	60	0	FALSE	371194.605	371793.68	372546.225	372692.875	NA	182	372693.1	6594159	115257	6594245	344948.505
TRUE	TRUE	NA	tar1att2_2	att_2	word_ttq_avo_4	1	502.775	39	keydown	right_down	NA	NA	NA	3	61	0	FALSE	372693.31	373592.05	374111.505	374274.84	NA	183	374275.075	6594159	115257	6594246	346530.48
TRUE	TRUE	NA	tar1att2_2	att_2	word_ttq_avo_10	1	508.145	39	keydown	right_down	NA	NA	NA	3	62	0	FALSE	374275.3	374841.025	375365.8	375523.73	NA	184	375523.95	6594159	115257	6594246	347779.355
TRUE	TRUE	NA	tar1att2_2	tar_1	liqun_a_10_test	1	1080.665	39	keydown	right_down	NA	NA	NA	3	63	0	FALSE	375524.235	376289.835	377481.135	377638.56	NA	185	377638.755	6594159	115257	6594247	349894.16
TRUE	TRUE	NA	tar1att2_2	tar_1	nanjing_p_10_test	1	585.67	39	keydown	right_down	NA	NA	NA	3	64	0	FALSE	377639.165	378271.33	378966.265	379120.575	NA	186	379120.795	6594159	115257	6594247	351376.2
TRUE	TRUE	NA	tar1att2_2	att_1	word_ttq_app_9	1	668.185	37	keydown	left_down	NA	NA	NA	3	65	0	FALSE	379121.035	379836.655	380521.5	380669.26	NA	187	380669.485	6594159	115257	6594247	352924.89
TRUE	TRUE	NA	tar1att2_2	tar_1	hongshuangxi_a_3_test	1	696.08	39	keydown	right_down	NA	NA	NA	3	66	0	FALSE	380669.74	381501.81	382214.965	382384.41	NA	188	382384.605	6594159	115257	6594248	354640.01
TRUE	TRUE	NA	tar1att2_2	att_1	word_ttq_app_7	1	797.54	37	keydown	left_down	NA	NA	NA	3	67	0	FALSE	382384.815	383333.56	384148.125	384299.43	NA	189	384299.645	6594159	115257	6594248	356555.05
TRUE	TRUE	NA	tar1att2_2	tar_1	hongshuangxi_a_5_test	1	735.49	39	keydown	right_down	NA	NA	NA	3	68	0	FALSE	384299.91	385148.645	385900.845	386047.905	NA	190	386048.105	6594159	115257	6594249	358303.51
TRUE	TRUE	NA	tar1att2_2	att_1	word_ttq_app_4	1	751.195	37	keydown	left_down	NA	NA	NA	3	69	0	FALSE	386048.355	386564.065	387331.99	387496.67	NA	191	387496.875	6594159	115257	6594249	359752.28
TRUE	TRUE	NA	tar1att2_2	att_2	word_ttq_avo_9	1	539.915	39	keydown	right_down	NA	NA	NA	3	70	0	FALSE	387497.085	388395.785	388952.365	389111.885	NA	192	389112.085	6594159	115257	6594249	361367.49
TRUE	TRUE	NA	tar1att2_2	att_1	word_ttq_app_10	1	658.3	37	keydown	left_down	NA	NA	NA	3	71	0	FALSE	389112.285	389777.93	390452.9	390610.525	NA	193	390610.72	6594159	115257	6594250	362866.125
