from_seq	to_seq	event	block	trial	reps	appr	stim	tilt	image	cat	response	rt	set_id	sust	type	placebo	approach_tilt
12	13	trial	0	0	1	no	practice_test	right	practice_test_right	test	1	1244	168	FALSE	practice	TRUE	left
17	18	trial	0	1	0	no	practice_test	right	practice_test_right	test	1	1032	168	TRUE	practice	TRUE	left
21	22	trial	0	2	0	yes	practice_control	left	practice_control_left	control	1	661	168	TRUE	practice	TRUE	left
25	26	trial	0	3	1	yes	practice_control	left	practice_control_left	control	1	799	168	TRUE	practice	TRUE	left
29	30	trial	0	4	1	yes	practice_test	left	practice_test_left	test	1	773	168	TRUE	practice	TRUE	left
33	34	trial	0	5	2	yes	practice_control	left	practice_control_left	control	1	568	168	TRUE	practice	TRUE	left
37	38	trial	0	6	0	no	practice_control	right	practice_control_right	control	1	452	168	TRUE	practice	TRUE	left
41	42	trial	0	7	2	no	practice_control	right	practice_control_right	control	1	488	168	TRUE	practice	TRUE	left
45	46	trial	0	8	2	no	practice_test	right	practice_test_right	test	1	478	168	TRUE	practice	TRUE	left
49	50	trial	0	9	2	yes	practice_test	left	practice_test_left	test	2	492	168	FALSE	practice	TRUE	left
56	57	trial	0	10	1	no	practice_control	right	practice_control_right	control	1	806	168	TRUE	practice	TRUE	left
60	61	trial	0	11	0	yes	practice_test	left	practice_test_left	test	1	387	168	TRUE	practice	TRUE	left
68	69	trial	1	0	1	no	p35_test	right	p35_test_right	test	1	1143	168	TRUE	assess	TRUE	left
72	73	trial	1	1	0	no	p15_control	right	p15_control_right	control	1	796	168	TRUE	assess	TRUE	left
76	77	trial	1	2	0	no	a40_test	right	a40_test_right	test	1	582	168	TRUE	assess	TRUE	left
80	81	trial	1	3	1	no	p22_test	right	p22_test_right	test	1	614	168	TRUE	assess	TRUE	left
84	85	trial	1	4	0	no	p35_control	right	p35_control_right	control	1	481	168	TRUE	assess	TRUE	left
88	89	trial	1	5	1	yes	a23_control	left	a23_control_left	control	1	615	168	TRUE	assess	TRUE	left
92	93	trial	1	6	0	no	a66_control	right	a66_control_right	control	1	414	168	TRUE	assess	TRUE	left
96	97	trial	1	7	1	no	p15_control	right	p15_control_right	control	1	549	168	TRUE	assess	TRUE	left
100	101	trial	1	8	0	yes	p54_test	left	p54_test_left	test	1	861	168	TRUE	assess	TRUE	left
104	105	trial	1	9	0	no	p15_test	right	p15_test_right	test	1	405	168	TRUE	assess	TRUE	left
108	109	trial	1	10	1	yes	p22_control	left	p22_control_left	control	1	348	168	TRUE	assess	TRUE	left
112	113	trial	1	11	0	no	p22_test	right	p22_test_right	test	1	355	168	TRUE	assess	TRUE	left
116	117	trial	1	12	0	no	p22_control	right	p22_control_right	control	1	420	168	TRUE	assess	TRUE	left
120	121	trial	1	13	1	no	p15_test	right	p15_test_right	test	1	441	168	TRUE	assess	TRUE	left
124	125	trial	1	14	1	no	p54_control	right	p54_control_right	control	2	465	168	FALSE	assess	TRUE	left
129	130	trial	1	15	1	yes	p35_test	left	p35_test_left	test	1	1039	168	TRUE	assess	TRUE	left
133	134	trial	1	16	1	no	p35_control	right	p35_control_right	control	1	577	168	TRUE	assess	TRUE	left
137	138	trial	1	17	1	no	a12_test	right	a12_test_right	test	1	643	168	TRUE	assess	TRUE	left
141	142	trial	1	18	1	yes	a40_control	left	a40_control_left	control	1	588	168	TRUE	assess	TRUE	left
145	146	trial	1	19	0	yes	p15_test	left	p15_test_left	test	1	919	168	TRUE	assess	TRUE	left
149	150	trial	1	20	1	no	p54_test	right	p54_test_right	test	1	547	168	TRUE	assess	TRUE	left
153	154	trial	1	21	1	no	a23_control	right	a23_control_right	control	1	535	168	TRUE	assess	TRUE	left
157	158	trial	1	22	1	yes	a12_test	left	a12_test_left	test	1	623	168	TRUE	assess	TRUE	left
161	162	trial	1	23	1	yes	a40_test	left	a40_test_left	test	1	668	168	TRUE	assess	TRUE	left
165	166	trial	1	24	1	yes	a12_control	left	a12_control_left	control	1	649	168	TRUE	assess	TRUE	left
169	170	trial	1	25	1	no	a40_control	right	a40_control_right	control	2	490	168	TRUE	assess	TRUE	left
175	176	trial	1	26	0	no	p54_control	right	p54_control_right	control	1	801	168	TRUE	assess	TRUE	left
179	180	trial	1	27	1	no	a23_test	right	a23_test_right	test	1	670	168	TRUE	assess	TRUE	left
183	184	trial	1	28	1	no	p22_control	right	p22_control_right	control	1	659	168	TRUE	assess	TRUE	left
187	188	trial	1	29	0	yes	p22_test	left	p22_test_left	test	1	645	168	TRUE	assess	TRUE	left
191	192	trial	1	30	1	yes	p15_test	left	p15_test_left	test	1	636	168	TRUE	assess	TRUE	left
195	196	trial	1	31	1	no	a66_control	right	a66_control_right	control	1	573	168	TRUE	assess	TRUE	left
203	204	trial	2	0	1	yes	p54_test	left	p54_test_left	test	1	786	168	TRUE	assess	TRUE	left
207	208	trial	2	1	1	no	a66_test	right	a66_test_right	test	1	443	168	TRUE	assess	TRUE	left
211	212	trial	2	2	0	no	a12_control	right	a12_control_right	control	1	883	168	TRUE	assess	TRUE	left
215	216	trial	2	3	1	no	a40_test	right	a40_test_right	test	1	727	168	TRUE	assess	TRUE	left
219	220	trial	2	4	0	no	a40_control	right	a40_control_right	control	1	697	168	TRUE	assess	TRUE	left
223	224	trial	2	5	0	yes	a23_control	left	a23_control_left	control	1	614	168	TRUE	assess	TRUE	left
227	228	trial	2	6	0	yes	a12_test	left	a12_test_left	test	1	479	168	TRUE	assess	TRUE	left
231	232	trial	2	7	0	yes	p35_control	left	p35_control_left	control	1	543	168	TRUE	assess	TRUE	left
235	236	trial	2	8	1	yes	a66_test	left	a66_test_left	test	1	706	168	TRUE	assess	TRUE	left
239	240	trial	2	9	0	no	a12_test	right	a12_test_right	test	1	467	168	TRUE	assess	TRUE	left
243	244	trial	2	10	0	yes	a12_control	left	a12_control_left	control	1	567	168	TRUE	assess	TRUE	left
247	248	trial	2	11	0	no	p54_test	right	p54_test_right	test	1	387	168	TRUE	assess	TRUE	left
251	252	trial	2	12	0	yes	p35_test	left	p35_test_left	test	1	555	168	TRUE	assess	TRUE	left
255	256	trial	2	13	0	no	p35_test	right	p35_test_right	test	1	542	168	TRUE	assess	TRUE	left
259	260	trial	2	14	1	yes	p35_control	left	p35_control_left	control	1	405	168	TRUE	assess	TRUE	left
263	264	trial	2	15	1	yes	a66_control	left	a66_control_left	control	2	647	168	FALSE	assess	TRUE	left
268	269	trial	2	16	0	yes	p54_control	left	p54_control_left	control	1	710	168	TRUE	assess	TRUE	left
272	273	trial	2	17	0	yes	a66_control	left	a66_control_left	control	1	545	168	TRUE	assess	TRUE	left
276	277	trial	2	18	0	yes	a23_test	left	a23_test_left	test	1	438	168	TRUE	assess	TRUE	left
280	281	trial	2	19	0	no	a23_test	right	a23_test_right	test	1	441	168	TRUE	assess	TRUE	left
284	285	trial	2	20	0	yes	a66_test	left	a66_test_left	test	1	491	168	TRUE	assess	TRUE	left
288	289	trial	2	21	1	yes	a23_test	left	a23_test_left	test	1	433	168	TRUE	assess	TRUE	left
292	293	trial	2	22	0	yes	p15_control	left	p15_control_left	control	1	501	168	TRUE	assess	TRUE	left
296	297	trial	2	23	0	no	a23_control	right	a23_control_right	control	1	578	168	TRUE	assess	TRUE	left
300	301	trial	2	24	1	yes	p15_control	left	p15_control_left	control	1	592	168	TRUE	assess	TRUE	left
304	305	trial	2	25	1	yes	p22_test	left	p22_test_left	test	1	709	168	TRUE	assess	TRUE	left
308	309	trial	2	26	0	yes	a40_test	left	a40_test_left	test	1	863	168	TRUE	assess	TRUE	left
312	313	trial	2	27	1	yes	p54_control	left	p54_control_left	control	1	555	168	TRUE	assess	TRUE	left
316	317	trial	2	28	0	yes	p22_control	left	p22_control_left	control	1	574	168	TRUE	assess	TRUE	left
320	321	trial	2	29	1	no	a12_control	right	a12_control_right	control	1	806	168	TRUE	assess	TRUE	left
324	325	trial	2	30	0	no	a66_test	right	a66_test_right	test	1	618	168	TRUE	assess	TRUE	left
328	329	trial	2	31	0	yes	a40_control	left	a40_control_left	control	1	515	168	TRUE	assess	TRUE	left
12	13	trial	0	0	0	no	practice_control	right	practice_control_right	control	1	604	174	TRUE	practice	TRUE	left
16	17	trial	0	1	1	no	practice_control	right	practice_control_right	control	1	591	174	TRUE	practice	TRUE	left
20	21	trial	0	2	2	no	practice_test	right	practice_test_right	test	1	476	174	TRUE	practice	TRUE	left
24	25	trial	0	3	0	yes	practice_control	left	practice_control_left	control	1	711	174	TRUE	practice	TRUE	left
28	29	trial	0	4	0	yes	practice_test	left	practice_test_left	test	1	839	174	TRUE	practice	TRUE	left
32	33	trial	0	5	1	no	practice_test	right	practice_test_right	test	1	684	174	TRUE	practice	TRUE	left
36	37	trial	0	6	2	yes	practice_control	left	practice_control_left	control	1	855	174	TRUE	practice	TRUE	left
40	41	trial	0	7	0	no	practice_test	right	practice_test_right	test	1	485	174	TRUE	practice	TRUE	left
44	45	trial	0	8	2	no	practice_control	right	practice_control_right	control	1	930	174	TRUE	practice	TRUE	left
48	49	trial	0	9	1	yes	practice_test	left	practice_test_left	test	1	863	174	TRUE	practice	TRUE	left
52	53	trial	0	10	2	yes	practice_test	left	practice_test_left	test	1	1143	174	TRUE	practice	TRUE	left
56	57	trial	0	11	1	yes	practice_control	left	practice_control_left	control	1	842	174	TRUE	practice	TRUE	left
64	65	trial	1	0	1	yes	p63_test	left	p63_test_left	test	1	1308	174	TRUE	assess	TRUE	left
68	69	trial	1	1	1	no	a75_control	right	a75_control_right	control	1	802	174	TRUE	assess	TRUE	left
72	73	trial	1	2	0	yes	p73_control	left	p73_control_left	control	1	613	174	TRUE	assess	TRUE	left
76	77	trial	1	3	1	no	a75_test	right	a75_test_right	test	1	671	174	TRUE	assess	TRUE	left
80	81	trial	1	4	0	no	p63_test	right	p63_test_right	test	1	653	174	TRUE	assess	TRUE	left
84	85	trial	1	5	0	no	a50_test	right	a50_test_right	test	1	781	174	TRUE	assess	TRUE	left
88	89	trial	1	6	1	yes	a10_control	left	a10_control_left	control	1	905	174	TRUE	assess	TRUE	left
92	93	trial	1	7	0	yes	p68_control	left	p68_control_left	control	2	1075	174	TRUE	assess	TRUE	left
98	99	trial	1	8	0	no	a75_control	right	a75_control_right	control	1	465	174	TRUE	assess	TRUE	left
102	103	trial	1	9	0	yes	a8_control	left	a8_control_left	control	1	1728	174	TRUE	assess	TRUE	left
106	107	trial	1	10	0	no	a10_test	right	a10_test_right	test	2	1042	174	TRUE	assess	TRUE	left
112	113	trial	1	11	1	no	p55_test	right	p55_test_right	test	2	424	174	FALSE	assess	TRUE	left
117	118	trial	1	12	0	no	a50_control	right	a50_control_right	control	1	700	174	TRUE	assess	TRUE	left
121	122	trial	1	13	1	no	p63_test	right	p63_test_right	test	1	965	174	TRUE	assess	TRUE	left
125	126	trial	1	14	0	no	a8_test	right	a8_test_right	test	1	2418	174	TRUE	assess	TRUE	left
129	130	trial	1	15	1	yes	p73_control	left	p73_control_left	control	1	1352	174	TRUE	assess	TRUE	left
133	134	trial	1	16	0	no	a10_control	right	a10_control_right	control	1	809	174	TRUE	assess	TRUE	left
137	138	trial	1	17	1	no	p73_control	right	p73_control_right	control	1	841	174	TRUE	assess	TRUE	left
141	142	trial	1	18	1	no	p63_control	right	p63_control_right	control	1	715	174	TRUE	assess	TRUE	left
145	146	trial	1	19	0	no	a75_test	right	a75_test_right	test	1	500	174	TRUE	assess	TRUE	left
149	150	trial	1	20	1	yes	a50_control	left	a50_control_left	control	1	981	174	TRUE	assess	TRUE	left
153	154	trial	1	21	1	no	a10_control	right	a10_control_right	control	1	628	174	TRUE	assess	TRUE	left
157	158	trial	1	22	1	no	a10_test	right	a10_test_right	test	1	639	174	TRUE	assess	TRUE	left
161	162	trial	1	23	1	yes	a75_control	left	a75_control_left	control	1	674	174	TRUE	assess	TRUE	left
165	166	trial	1	24	1	yes	p63_control	left	p63_control_left	control	1	953	174	TRUE	assess	TRUE	left
169	170	trial	1	25	1	no	a50_control	right	a50_control_right	control	1	676	174	TRUE	assess	TRUE	left
173	174	trial	1	26	0	yes	a8_test	left	a8_test_left	test	1	1306	174	TRUE	assess	TRUE	left
177	178	trial	1	27	0	no	p73_control	right	p73_control_right	control	1	626	174	TRUE	assess	TRUE	left
181	182	trial	1	28	1	no	a8_test	right	a8_test_right	test	1	586	174	TRUE	assess	TRUE	left
185	186	trial	1	29	1	yes	a10_test	left	a10_test_left	test	3	NA	174	TRUE	assess	TRUE	left
191	192	trial	1	30	1	no	a8_control	right	a8_control_right	control	1	2608	174	TRUE	assess	TRUE	left
195	196	trial	1	31	1	no	p68_control	right	p68_control_right	control	3	NA	174	TRUE	assess	TRUE	left
201	202	trial	1	32	1	yes	p73_test	left	p73_test_left	test	1	842	174	TRUE	assess	TRUE	left
205	206	trial	1	33	1	no	p73_test	right	p73_test_right	test	1	641	174	TRUE	assess	TRUE	left
209	210	trial	1	34	0	yes	a10_test	left	a10_test_left	test	1	639	174	TRUE	assess	TRUE	left
213	214	trial	1	35	1	yes	p68_control	left	p68_control_left	control	1	946	174	TRUE	assess	TRUE	left
217	218	trial	1	36	1	no	p55_control	right	p55_control_right	control	1	792	174	TRUE	assess	TRUE	left
221	222	trial	1	37	1	no	a50_test	right	a50_test_right	test	1	1009	174	TRUE	assess	TRUE	left
225	226	trial	1	38	0	yes	p63_control	left	p63_control_left	control	1	738	174	TRUE	assess	TRUE	left
229	230	trial	1	39	0	yes	a75_test	left	a75_test_left	test	1	813	174	TRUE	assess	TRUE	left
233	234	trial	1	40	0	yes	p55_test	left	p55_test_left	test	1	926	174	TRUE	assess	TRUE	left
237	238	trial	1	41	1	yes	a50_test	left	a50_test_left	test	1	800	174	TRUE	assess	TRUE	left
241	242	trial	1	42	0	yes	a10_control	left	a10_control_left	control	1	904	174	TRUE	assess	TRUE	left
245	246	trial	1	43	0	yes	a50_control	left	a50_control_left	control	1	949	174	TRUE	assess	TRUE	left
249	250	trial	1	44	0	no	p68_control	right	p68_control_right	control	1	829	174	TRUE	assess	TRUE	left
253	254	trial	1	45	1	yes	a8_test	left	a8_test_left	test	1	873	174	TRUE	assess	TRUE	left
257	258	trial	1	46	0	yes	p63_test	left	p63_test_left	test	1	763	174	TRUE	assess	TRUE	left
261	262	trial	1	47	0	no	a8_control	right	a8_control_right	control	1	814	174	TRUE	assess	TRUE	left
265	266	trial	1	48	1	yes	p55_control	left	p55_control_left	control	1	1472	174	TRUE	assess	TRUE	left
269	270	trial	1	49	1	yes	p68_test	left	p68_test_left	test	3	NA	174	TRUE	assess	TRUE	left
275	276	trial	1	50	0	no	p55_test	right	p55_test_right	test	1	631	174	TRUE	assess	TRUE	left
279	280	trial	1	51	0	yes	a75_control	left	a75_control_left	control	1	739	174	TRUE	assess	TRUE	left
283	284	trial	1	52	0	yes	a50_test	left	a50_test_left	test	1	709	174	TRUE	assess	TRUE	left
287	288	trial	1	53	0	no	p68_test	right	p68_test_right	test	1	1093	174	TRUE	assess	TRUE	left
291	292	trial	1	54	0	yes	p55_control	left	p55_control_left	control	1	756	174	TRUE	assess	TRUE	left
295	296	trial	1	55	0	yes	p73_test	left	p73_test_left	test	1	803	174	TRUE	assess	TRUE	left
299	300	trial	1	56	1	yes	p55_test	left	p55_test_left	test	1	799	174	TRUE	assess	TRUE	left
303	304	trial	1	57	0	no	p63_control	right	p63_control_right	control	1	669	174	TRUE	assess	TRUE	left
307	308	trial	1	58	0	no	p73_test	right	p73_test_right	test	1	1042	174	TRUE	assess	TRUE	left
311	312	trial	1	59	1	no	p68_test	right	p68_test_right	test	1	857	174	TRUE	assess	TRUE	left
315	316	trial	1	60	0	yes	p68_test	left	p68_test_left	test	1	914	174	TRUE	assess	TRUE	left
319	320	trial	1	61	1	yes	a75_test	left	a75_test_left	test	1	1055	174	TRUE	assess	TRUE	left
323	324	trial	1	62	0	no	p55_control	right	p55_control_right	control	3	NA	174	TRUE	assess	TRUE	left
329	330	trial	1	63	1	yes	a8_control	left	a8_control_left	control	1	813	174	TRUE	assess	TRUE	left
337	338	trial	2	0	0	no	p48_control	right	p48_control_right	control	1	1112	174	TRUE	train	TRUE	left
341	342	trial	2	1	1	yes	a34_test	left	a34_test_left	test	1	1317	174	TRUE	train	TRUE	left
345	346	trial	2	2	3	yes	p48_test	left	p48_test_left	test	1	1216	174	TRUE	train	TRUE	left
349	350	trial	2	3	3	no	a62_test	right	a62_test_right	test	1	781	174	TRUE	train	TRUE	left
353	354	trial	2	4	2	no	a62_control	right	a62_control_right	control	1	774	174	TRUE	train	TRUE	left
357	358	trial	2	5	3	yes	a60_control	left	a60_control_left	control	1	727	174	TRUE	train	TRUE	left
361	362	trial	2	6	2	yes	a1_test	left	a1_test_left	test	1	1401	174	TRUE	train	TRUE	left
365	366	trial	2	7	0	no	a62_control	right	a62_control_right	control	1	1827	174	TRUE	train	TRUE	left
369	370	trial	2	8	1	yes	a34_control	left	a34_control_left	control	1	631	174	TRUE	train	TRUE	left
373	374	trial	2	9	2	yes	a60_test	left	a60_test_left	test	1	1459	174	TRUE	train	TRUE	left
377	378	trial	2	10	2	yes	p45_control	left	p45_control_left	control	1	1162	174	TRUE	train	TRUE	left
381	382	trial	2	11	2	no	a60_test	right	a60_test_right	test	2	1185	174	TRUE	train	TRUE	left
387	388	trial	2	12	3	yes	p48_control	left	p48_control_left	control	1	860	174	TRUE	train	TRUE	left
391	392	trial	2	13	1	yes	p58_test	left	p58_test_left	test	1	1054	174	TRUE	train	TRUE	left
395	396	trial	2	14	0	yes	p45_test	left	p45_test_left	test	1	1802	174	TRUE	train	TRUE	left
399	400	trial	2	15	3	yes	p45_test	left	p45_test_left	test	1	1010	174	TRUE	train	TRUE	left
403	404	trial	2	16	2	no	a34_control	right	a34_control_right	control	1	878	174	TRUE	train	TRUE	left
407	408	trial	2	17	3	yes	p6_control	left	p6_control_left	control	1	856	174	TRUE	train	TRUE	left
411	412	trial	2	18	2	no	a55_test	right	a55_test_right	test	1	1373	174	TRUE	train	TRUE	left
415	416	trial	2	19	0	yes	p62_test	left	p62_test_left	test	1	776	174	TRUE	train	TRUE	left
419	420	trial	2	20	3	no	a1_control	right	a1_control_right	control	1	823	174	TRUE	train	TRUE	left
423	424	trial	2	21	3	yes	p45_control	left	p45_control_left	control	1	1030	174	TRUE	train	TRUE	left
427	428	trial	2	22	3	yes	a1_test	left	a1_test_left	test	1	953	174	TRUE	train	TRUE	left
431	432	trial	2	23	3	no	p48_control	right	p48_control_right	control	1	888	174	TRUE	train	TRUE	left
435	436	trial	2	24	0	no	a34_test	right	a34_test_right	test	1	940	174	TRUE	train	TRUE	left
439	440	trial	2	25	3	no	p6_control	right	p6_control_right	control	1	2531	174	TRUE	train	TRUE	left
443	444	trial	2	26	1	no	a60_test	right	a60_test_right	test	1	844	174	TRUE	train	TRUE	left
447	448	trial	2	27	3	yes	p62_control	left	p62_control_left	control	1	875	174	TRUE	train	TRUE	left
451	452	trial	2	28	1	no	p6_control	right	p6_control_right	control	1	1073	174	TRUE	train	TRUE	left
455	456	trial	2	29	1	yes	a1_test	left	a1_test_left	test	1	1169	174	TRUE	train	TRUE	left
459	460	trial	2	30	1	yes	p48_test	left	p48_test_left	test	1	866	174	TRUE	train	TRUE	left
463	464	trial	2	31	2	no	p48_control	right	p48_control_right	control	1	896	174	TRUE	train	TRUE	left
467	468	trial	2	32	0	yes	a55_test	left	a55_test_left	test	3	NA	174	TRUE	train	TRUE	left
473	474	trial	2	33	1	yes	a60_control	left	a60_control_left	control	1	733	174	TRUE	train	TRUE	left
477	478	trial	2	34	2	yes	a45_test	left	a45_test_left	test	1	859	174	TRUE	train	TRUE	left
481	482	trial	2	35	0	no	p26_control	right	p26_control_right	control	1	699	174	TRUE	train	TRUE	left
485	486	trial	2	36	2	yes	a34_test	left	a34_test_left	test	1	1391	174	TRUE	train	TRUE	left
489	490	trial	2	37	2	no	a55_control	right	a55_control_right	control	1	1039	174	TRUE	train	TRUE	left
493	494	trial	2	38	0	no	p58_control	right	p58_control_right	control	1	1083	174	TRUE	train	TRUE	left
497	498	trial	2	39	0	no	a45_test	right	a45_test_right	test	1	711	174	TRUE	train	TRUE	left
501	502	trial	2	40	3	no	a34_test	right	a34_test_right	test	1	585	174	TRUE	train	TRUE	left
505	506	trial	2	41	3	yes	p26_control	left	p26_control_left	control	1	538	174	TRUE	train	TRUE	left
509	510	trial	2	42	0	yes	p26_control	left	p26_control_left	control	1	925	174	TRUE	train	TRUE	left
513	514	trial	2	43	3	yes	p6_test	left	p6_test_left	test	1	892	174	TRUE	train	TRUE	left
517	518	trial	2	44	1	no	p62_control	right	p62_control_right	control	1	686	174	TRUE	train	TRUE	left
521	522	trial	2	45	2	no	p26_test	right	p26_test_right	test	1	787	174	TRUE	train	TRUE	left
525	526	trial	2	46	3	yes	a62_test	left	a62_test_left	test	1	607	174	TRUE	train	TRUE	left
529	530	trial	2	47	3	no	a55_control	right	a55_control_right	control	1	591	174	TRUE	train	TRUE	left
533	534	trial	2	48	1	yes	p26_test	left	p26_test_left	test	1	637	174	TRUE	train	TRUE	left
537	538	trial	2	49	0	no	p58_test	right	p58_test_right	test	1	530	174	TRUE	train	TRUE	left
541	542	trial	2	50	3	no	a60_test	right	a60_test_right	test	1	756	174	TRUE	train	TRUE	left
545	546	trial	2	51	3	no	a62_control	right	a62_control_right	control	1	768	174	TRUE	train	TRUE	left
549	550	trial	2	52	0	yes	a60_test	left	a60_test_left	test	3	NA	174	TRUE	train	TRUE	left
558	559	trial	2	53	1	no	a62_test	right	a62_test_right	test	1	840	174	TRUE	train	TRUE	left
562	563	trial	2	54	2	yes	p48_control	left	p48_control_left	control	1	2472	174	FALSE	train	TRUE	left
569	570	trial	2	55	0	yes	p26_test	left	p26_test_left	test	1	784	174	TRUE	train	TRUE	left
573	574	trial	2	56	1	yes	p58_control	left	p58_control_left	control	1	773	174	TRUE	train	TRUE	left
577	578	trial	2	57	0	yes	a1_control	left	a1_control_left	control	1	848	174	TRUE	train	TRUE	left
581	582	trial	2	58	3	no	p48_test	right	p48_test_right	test	1	907	174	TRUE	train	TRUE	left
585	586	trial	2	59	1	yes	a55_test	left	a55_test_left	test	2	2953	174	FALSE	train	TRUE	left
590	591	trial	2	60	0	yes	a45_control	left	a45_control_left	control	1	2554	174	TRUE	train	TRUE	left
594	595	trial	2	61	0	yes	a62_test	left	a62_test_left	test	1	2668	174	TRUE	train	TRUE	left
598	599	trial	2	62	0	no	p26_test	right	p26_test_right	test	1	1049	174	TRUE	train	TRUE	left
602	603	trial	2	63	2	no	a1_control	right	a1_control_right	control	3	NA	174	TRUE	train	TRUE	left
610	611	trial	2	64	0	no	p6_test	right	p6_test_right	test	1	647	174	TRUE	train	TRUE	left
614	615	trial	2	65	1	yes	a62_control	left	a62_control_left	control	1	782	174	TRUE	train	TRUE	left
618	619	trial	2	66	3	no	a1_test	right	a1_test_right	test	1	422	174	TRUE	train	TRUE	left
622	623	trial	2	67	0	yes	p62_control	left	p62_control_left	control	1	470	174	TRUE	train	TRUE	left
626	627	trial	2	68	0	yes	a1_test	left	a1_test_left	test	1	675	174	TRUE	train	TRUE	left
630	631	trial	2	69	3	no	p26_control	right	p26_control_right	control	1	1035	174	TRUE	train	TRUE	left
634	635	trial	2	70	1	yes	p6_test	left	p6_test_left	test	1	964	174	TRUE	train	TRUE	left
638	639	trial	2	71	1	no	a62_control	right	a62_control_right	control	1	1108	174	TRUE	train	TRUE	left
642	643	trial	2	72	1	yes	a60_test	left	a60_test_left	test	3	NA	174	TRUE	train	TRUE	left
648	649	trial	2	73	0	yes	p58_test	left	p58_test_left	test	1	827	174	TRUE	train	TRUE	left
652	653	trial	2	74	2	yes	a62_test	left	a62_test_left	test	1	2311	174	TRUE	train	TRUE	left
656	657	trial	2	75	2	no	a45_control	right	a45_control_right	control	1	1503	174	TRUE	train	TRUE	left
660	661	trial	2	76	2	yes	p6_test	left	p6_test_left	test	1	774	174	TRUE	train	TRUE	left
664	665	trial	2	77	1	yes	a1_control	left	a1_control_left	control	1	846	174	TRUE	train	TRUE	left
668	669	trial	2	78	3	yes	a55_test	left	a55_test_left	test	1	506	174	TRUE	train	TRUE	left
672	673	trial	2	79	1	no	p45_test	right	p45_test_right	test	1	745	174	TRUE	train	TRUE	left
676	677	trial	2	80	0	no	p45_control	right	p45_control_right	control	1	594	174	TRUE	train	TRUE	left
680	681	trial	2	81	0	yes	a34_control	left	a34_control_left	control	1	717	174	TRUE	train	TRUE	left
684	685	trial	2	82	3	no	p45_test	right	p45_test_right	test	3	NA	174	TRUE	train	TRUE	left
690	691	trial	2	83	0	no	p45_test	right	p45_test_right	test	1	505	174	TRUE	train	TRUE	left
694	695	trial	2	84	1	no	p6_test	right	p6_test_right	test	1	416	174	TRUE	train	TRUE	left
698	699	trial	2	85	0	yes	a60_control	left	a60_control_left	control	1	619	174	TRUE	train	TRUE	left
702	703	trial	2	86	3	yes	a34_control	left	a34_control_left	control	1	1062	174	TRUE	train	TRUE	left
706	707	trial	2	87	2	yes	a55_control	left	a55_control_left	control	1	828	174	TRUE	train	TRUE	left
710	711	trial	2	88	0	no	a60_test	right	a60_test_right	test	2	826	174	FALSE	train	TRUE	left
715	716	trial	2	89	2	no	a62_test	right	a62_test_right	test	1	837	174	TRUE	train	TRUE	left
719	720	trial	2	90	3	no	a60_control	right	a60_control_right	control	1	714	174	TRUE	train	TRUE	left
723	724	trial	2	91	1	no	p58_test	right	p58_test_right	test	1	527	174	TRUE	train	TRUE	left
727	728	trial	2	92	0	yes	p6_test	left	p6_test_left	test	1	668	174	TRUE	train	TRUE	left
731	732	trial	2	93	1	yes	p6_control	left	p6_control_left	control	1	815	174	TRUE	train	TRUE	left
735	736	trial	2	94	1	yes	p45_test	left	p45_test_left	test	1	1013	174	TRUE	train	TRUE	left
739	740	trial	2	95	2	yes	a60_control	left	a60_control_left	control	1	1283	174	TRUE	train	TRUE	left
747	748	trial	3	0	0	yes	p48_control	left	p48_control_left	control	1	972	174	TRUE	train	TRUE	left
751	752	trial	3	1	1	yes	a45_control	left	a45_control_left	control	1	577	174	TRUE	train	TRUE	left
755	756	trial	3	2	3	yes	p58_control	left	p58_control_left	control	1	553	174	TRUE	train	TRUE	left
759	760	trial	3	3	1	no	p62_test	right	p62_test_right	test	1	638	174	TRUE	train	TRUE	left
763	764	trial	3	4	0	yes	a55_control	left	a55_control_left	control	1	885	174	TRUE	train	TRUE	left
767	768	trial	3	5	0	no	p62_test	right	p62_test_right	test	1	1220	174	TRUE	train	TRUE	left
771	772	trial	3	6	1	yes	p62_test	left	p62_test_left	test	2	605	174	FALSE	train	TRUE	left
777	778	trial	3	7	2	no	a60_control	right	a60_control_right	control	1	799	174	TRUE	train	TRUE	left
781	782	trial	3	8	3	yes	p26_test	left	p26_test_left	test	1	700	174	TRUE	train	TRUE	left
785	786	trial	3	9	1	no	p48_test	right	p48_test_right	test	1	818	174	TRUE	train	TRUE	left
789	790	trial	3	10	3	yes	a1_control	left	a1_control_left	control	1	1075	174	TRUE	train	TRUE	left
793	794	trial	3	11	0	yes	p45_control	left	p45_control_left	control	1	915	174	TRUE	train	TRUE	left
797	798	trial	3	12	2	yes	p48_test	left	p48_test_left	test	1	841	174	TRUE	train	TRUE	left
801	802	trial	3	13	1	no	p26_test	right	p26_test_right	test	1	800	174	TRUE	train	TRUE	left
805	806	trial	3	14	1	no	a34_test	right	a34_test_right	test	1	2692	174	TRUE	train	TRUE	left
809	810	trial	3	15	1	no	a55_control	right	a55_control_right	control	1	657	174	TRUE	train	TRUE	left
813	814	trial	3	16	2	yes	a1_control	left	a1_control_left	control	1	1008	174	TRUE	train	TRUE	left
817	818	trial	3	17	2	yes	p45_test	left	p45_test_left	test	1	799	174	TRUE	train	TRUE	left
821	822	trial	3	18	2	yes	a55_test	left	a55_test_left	test	1	642	174	TRUE	train	TRUE	left
825	826	trial	3	19	2	yes	a62_control	left	a62_control_left	control	1	486	174	TRUE	train	TRUE	left
829	830	trial	3	20	3	no	p62_test	right	p62_test_right	test	1	687	174	TRUE	train	TRUE	left
833	834	trial	3	21	3	yes	a55_control	left	a55_control_left	control	1	908	174	TRUE	train	TRUE	left
837	838	trial	3	22	3	yes	a62_control	left	a62_control_left	control	1	1897	174	TRUE	train	TRUE	left
841	842	trial	3	23	0	yes	a62_control	left	a62_control_left	control	1	779	174	TRUE	train	TRUE	left
845	846	trial	3	24	3	yes	p58_test	left	p58_test_left	test	1	746	174	TRUE	train	TRUE	left
849	850	trial	3	25	2	yes	p26_test	left	p26_test_left	test	1	1162	174	TRUE	train	TRUE	left
853	854	trial	3	26	1	no	a34_control	right	a34_control_right	control	1	1433	174	TRUE	train	TRUE	left
857	858	trial	3	27	1	no	a55_test	right	a55_test_right	test	3	NA	174	TRUE	train	TRUE	left
865	866	trial	3	28	0	yes	a34_test	left	a34_test_left	test	1	1023	174	TRUE	train	TRUE	left
869	870	trial	3	29	2	no	p62_test	right	p62_test_right	test	1	719	174	TRUE	train	TRUE	left
873	874	trial	3	30	0	no	a62_test	right	a62_test_right	test	1	510	174	TRUE	train	TRUE	left
877	878	trial	3	31	1	yes	p26_control	left	p26_control_left	control	1	1055	174	TRUE	train	TRUE	left
881	882	trial	3	32	1	no	a60_control	right	a60_control_right	control	1	802	174	TRUE	train	TRUE	left
885	886	trial	3	33	0	yes	p48_test	left	p48_test_left	test	2	918	174	FALSE	train	TRUE	left
890	891	trial	3	34	0	no	a55_test	right	a55_test_right	test	1	2827	174	TRUE	train	TRUE	left
894	895	trial	3	35	0	no	a55_control	right	a55_control_right	control	1	602	174	TRUE	train	TRUE	left
898	899	trial	3	36	3	no	a45_control	right	a45_control_right	control	1	612	174	TRUE	train	TRUE	left
902	903	trial	3	37	1	no	a45_control	right	a45_control_right	control	1	821	174	TRUE	train	TRUE	left
906	907	trial	3	38	3	yes	a60_test	left	a60_test_left	test	1	1179	174	TRUE	train	TRUE	left
910	911	trial	3	39	2	yes	a34_control	left	a34_control_left	control	1	1666	174	TRUE	train	TRUE	left
914	915	trial	3	40	1	yes	p45_control	left	p45_control_left	control	1	842	174	TRUE	train	TRUE	left
918	919	trial	3	41	3	yes	p62_test	left	p62_test_left	test	1	2966	174	TRUE	train	TRUE	left
922	923	trial	3	42	2	no	p45_control	right	p45_control_right	control	1	1028	174	TRUE	train	TRUE	left
926	927	trial	3	43	0	no	a45_control	right	a45_control_right	control	1	1366	174	TRUE	train	TRUE	left
930	931	trial	3	44	3	no	a34_control	right	a34_control_right	control	1	2095	174	TRUE	train	TRUE	left
934	935	trial	3	45	1	yes	p62_control	left	p62_control_left	control	1	1021	174	TRUE	train	TRUE	left
938	939	trial	3	46	2	no	a45_test	right	a45_test_right	test	1	2872	174	TRUE	train	TRUE	left
942	943	trial	3	47	2	no	a1_test	right	a1_test_right	test	1	2999	174	TRUE	train	TRUE	left
946	947	trial	3	48	1	no	a1_control	right	a1_control_right	control	1	968	174	TRUE	train	TRUE	left
950	951	trial	3	49	1	yes	a45_test	left	a45_test_left	test	1	941	174	TRUE	train	TRUE	left
954	955	trial	3	50	2	yes	a45_control	left	a45_control_left	control	1	803	174	TRUE	train	TRUE	left
958	959	trial	3	51	3	no	p45_control	right	p45_control_right	control	1	559	174	TRUE	train	TRUE	left
962	963	trial	3	52	0	no	p62_control	right	p62_control_right	control	1	1001	174	TRUE	train	TRUE	left
966	967	trial	3	53	0	no	a1_test	right	a1_test_right	test	1	1853	174	TRUE	train	TRUE	left
970	971	trial	3	54	3	no	p6_test	right	p6_test_right	test	1	656	174	TRUE	train	TRUE	left
974	975	trial	3	55	2	yes	p26_control	left	p26_control_left	control	1	699	174	TRUE	train	TRUE	left
978	979	trial	3	56	2	no	p6_control	right	p6_control_right	control	1	560	174	TRUE	train	TRUE	left
982	983	trial	3	57	1	no	p58_control	right	p58_control_right	control	1	1101	174	TRUE	train	TRUE	left
986	987	trial	3	58	2	no	p6_test	right	p6_test_right	test	1	448	174	TRUE	train	TRUE	left
990	991	trial	3	59	1	yes	a55_control	left	a55_control_left	control	1	562	174	TRUE	train	TRUE	left
994	995	trial	3	60	2	no	p58_test	right	p58_test_right	test	1	583	174	TRUE	train	TRUE	left
998	999	trial	3	61	3	no	p58_test	right	p58_test_right	test	1	755	174	TRUE	train	TRUE	left
1002	1003	trial	3	62	3	no	a55_test	right	a55_test_right	test	1	781	174	TRUE	train	TRUE	left
1006	1007	trial	3	63	2	yes	p58_control	left	p58_control_left	control	1	841	174	TRUE	train	TRUE	left
1010	1011	trial	3	64	1	no	a45_test	right	a45_test_right	test	3	NA	174	TRUE	train	TRUE	left
1016	1017	trial	3	65	1	no	p45_control	right	p45_control_right	control	1	666	174	TRUE	train	TRUE	left
1020	1021	trial	3	66	0	yes	p6_control	left	p6_control_left	control	1	733	174	TRUE	train	TRUE	left
1024	1025	trial	3	67	2	yes	p6_control	left	p6_control_left	control	1	724	174	TRUE	train	TRUE	left
1028	1029	trial	3	68	2	no	a34_test	right	a34_test_right	test	1	746	174	TRUE	train	TRUE	left
1032	1033	trial	3	69	0	no	a34_control	right	a34_control_right	control	1	689	174	TRUE	train	TRUE	left
1036	1037	trial	3	70	0	yes	a45_test	left	a45_test_left	test	1	840	174	TRUE	train	TRUE	left
1040	1041	trial	3	71	0	yes	p58_control	left	p58_control_left	control	1	1542	174	TRUE	train	TRUE	left
1044	1045	trial	3	72	0	no	p6_control	right	p6_control_right	control	1	1058	174	TRUE	train	TRUE	left
1048	1049	trial	3	73	2	no	p58_control	right	p58_control_right	control	1	763	174	TRUE	train	TRUE	left
1052	1053	trial	3	74	0	no	p48_test	right	p48_test_right	test	1	969	174	TRUE	train	TRUE	left
1056	1057	trial	3	75	2	yes	p62_test	left	p62_test_left	test	1	500	174	TRUE	train	TRUE	left
1060	1061	trial	3	76	2	no	p26_control	right	p26_control_right	control	1	723	174	TRUE	train	TRUE	left
1064	1065	trial	3	77	1	yes	p48_control	left	p48_control_left	control	1	670	174	TRUE	train	TRUE	left
1068	1069	trial	3	78	2	no	p48_test	right	p48_test_right	test	1	1349	174	TRUE	train	TRUE	left
1072	1073	trial	3	79	1	no	a1_test	right	a1_test_right	test	1	1085	174	TRUE	train	TRUE	left
1076	1077	trial	3	80	2	yes	p58_test	left	p58_test_left	test	1	662	174	TRUE	train	TRUE	left
1080	1081	trial	3	81	1	no	p48_control	right	p48_control_right	control	1	861	174	TRUE	train	TRUE	left
1084	1085	trial	3	82	2	no	p45_test	right	p45_test_right	test	1	674	174	TRUE	train	TRUE	left
1088	1089	trial	3	83	1	yes	a62_test	left	a62_test_left	test	1	790	174	TRUE	train	TRUE	left
1092	1093	trial	3	84	3	yes	a34_test	left	a34_test_left	test	1	1196	174	TRUE	train	TRUE	left
1096	1097	trial	3	85	0	no	a1_control	right	a1_control_right	control	3	NA	174	TRUE	train	TRUE	left
1104	1105	trial	3	86	3	yes	a45_test	left	a45_test_left	test	2	641	174	FALSE	train	TRUE	left
1109	1110	trial	3	87	0	no	a60_control	right	a60_control_right	control	1	932	174	TRUE	train	TRUE	left
1113	1114	trial	3	88	3	no	p62_control	right	p62_control_right	control	1	704	174	TRUE	train	TRUE	left
1117	1118	trial	3	89	3	no	p26_test	right	p26_test_right	test	1	1212	174	TRUE	train	TRUE	left
1121	1122	trial	3	90	1	no	p26_control	right	p26_control_right	control	1	729	174	TRUE	train	TRUE	left
1125	1126	trial	3	91	2	yes	p62_control	left	p62_control_left	control	1	862	174	TRUE	train	TRUE	left
1129	1130	trial	3	92	2	no	p62_control	right	p62_control_right	control	1	811	174	TRUE	train	TRUE	left
1133	1134	trial	3	93	3	yes	a45_control	left	a45_control_left	control	1	1031	174	TRUE	train	TRUE	left
1137	1138	trial	3	94	3	no	a45_test	right	a45_test_right	test	1	1299	174	TRUE	train	TRUE	left
1141	1142	trial	3	95	3	no	p58_control	right	p58_control_right	control	1	1628	174	TRUE	train	TRUE	left
12	13	trial	0	0	0	yes	practice_test	left	practice_test_left	test	1	1586	175	TRUE	practice	TRUE	left
16	17	trial	0	1	1	no	practice_test	right	practice_test_right	test	1	608	175	TRUE	practice	TRUE	left
20	21	trial	0	2	0	no	practice_test	right	practice_test_right	test	1	795	175	TRUE	practice	TRUE	left
24	25	trial	0	3	2	yes	practice_control	left	practice_control_left	control	1	875	175	TRUE	practice	TRUE	left
28	29	trial	0	4	2	no	practice_control	right	practice_control_right	control	1	653	175	TRUE	practice	TRUE	left
32	33	trial	0	5	1	yes	practice_test	left	practice_test_left	test	1	1421	175	TRUE	practice	TRUE	left
36	37	trial	0	6	0	no	practice_control	right	practice_control_right	control	1	756	175	TRUE	practice	TRUE	left
40	41	trial	0	7	1	no	practice_control	right	practice_control_right	control	1	853	175	TRUE	practice	TRUE	left
44	45	trial	0	8	0	yes	practice_control	left	practice_control_left	control	1	573	175	TRUE	practice	TRUE	left
48	49	trial	0	9	1	yes	practice_control	left	practice_control_left	control	3	NA	175	TRUE	practice	TRUE	left
54	55	trial	0	10	2	yes	practice_test	left	practice_test_left	test	2	732	175	TRUE	practice	TRUE	left
60	61	trial	0	11	2	no	practice_test	right	practice_test_right	test	1	859	175	TRUE	practice	TRUE	left
68	69	trial	1	0	1	no	p30_control	right	p30_control_right	control	1	988	175	TRUE	assess	TRUE	left
72	73	trial	1	1	0	yes	p67_control	left	p67_control_left	control	1	860	175	TRUE	assess	TRUE	left
76	77	trial	1	2	1	no	a28_control	right	a28_control_right	control	1	1115	175	TRUE	assess	TRUE	left
80	81	trial	1	3	1	yes	a53_test	left	a53_test_left	test	3	NA	175	TRUE	assess	TRUE	left
86	87	trial	1	4	1	no	p39_control	right	p39_control_right	control	1	722	175	TRUE	assess	TRUE	left
90	91	trial	1	5	0	yes	a28_control	left	a28_control_left	control	1	1363	175	TRUE	assess	TRUE	left
94	95	trial	1	6	1	yes	p64_test	left	p64_test_left	test	1	994	175	TRUE	assess	TRUE	left
98	99	trial	1	7	0	yes	a57_test	left	a57_test_left	test	1	672	175	TRUE	assess	TRUE	left
102	103	trial	1	8	0	no	a57_control	right	a57_control_right	control	1	1165	175	TRUE	assess	TRUE	left
106	107	trial	1	9	1	no	a28_test	right	a28_test_right	test	1	783	175	TRUE	assess	TRUE	left
110	111	trial	1	10	1	yes	p30_control	left	p30_control_left	control	1	704	175	TRUE	assess	TRUE	left
114	115	trial	1	11	1	yes	p64_control	left	p64_control_left	control	1	1090	175	TRUE	assess	TRUE	left
118	119	trial	1	12	1	yes	p39_control	left	p39_control_left	control	1	692	175	TRUE	assess	TRUE	left
122	123	trial	1	13	0	yes	p30_control	left	p30_control_left	control	1	1511	175	TRUE	assess	TRUE	left
126	127	trial	1	14	0	yes	p39_test	left	p39_test_left	test	1	852	175	TRUE	assess	TRUE	left
130	131	trial	1	15	0	no	p64_test	right	p64_test_right	test	1	745	175	TRUE	assess	TRUE	left
134	135	trial	1	16	0	no	p39_control	right	p39_control_right	control	1	913	175	TRUE	assess	TRUE	left
138	139	trial	1	17	1	no	a53_test	right	a53_test_right	test	1	674	175	TRUE	assess	TRUE	left
142	143	trial	1	18	0	no	a57_test	right	a57_test_right	test	1	534	175	TRUE	assess	TRUE	left
146	147	trial	1	19	0	no	a68_control	right	a68_control_right	control	1	543	175	TRUE	assess	TRUE	left
150	151	trial	1	20	1	no	p30_test	right	p30_test_right	test	1	744	175	TRUE	assess	TRUE	left
154	155	trial	1	21	1	no	a57_test	right	a57_test_right	test	1	853	175	TRUE	assess	TRUE	left
158	159	trial	1	22	1	yes	a28_control	left	a28_control_left	control	1	664	175	TRUE	assess	TRUE	left
162	163	trial	1	23	0	no	a28_test	right	a28_test_right	test	1	1693	175	TRUE	assess	TRUE	left
166	167	trial	1	24	1	no	a53_control	right	a53_control_right	control	1	732	175	TRUE	assess	TRUE	left
170	171	trial	1	25	1	yes	p67_control	left	p67_control_left	control	1	867	175	TRUE	assess	TRUE	left
174	175	trial	1	26	0	no	p67_control	right	p67_control_right	control	1	732	175	TRUE	assess	TRUE	left
178	179	trial	1	27	0	yes	a68_test	left	a68_test_left	test	1	1423	175	TRUE	assess	TRUE	left
182	183	trial	1	28	0	no	p30_test	right	p30_test_right	test	1	702	175	TRUE	assess	TRUE	left
186	187	trial	1	29	0	yes	a57_control	left	a57_control_left	control	1	767	175	TRUE	assess	TRUE	left
190	191	trial	1	30	1	no	p67_test	right	p67_test_right	test	1	689	175	TRUE	assess	TRUE	left
194	195	trial	1	31	0	yes	a68_control	left	a68_control_left	control	1	746	175	TRUE	assess	TRUE	left
198	199	trial	1	32	1	yes	a28_test	left	a28_test_left	test	1	1540	175	TRUE	assess	TRUE	left
202	203	trial	1	33	0	yes	p64_control	left	p64_control_left	control	1	912	175	TRUE	assess	TRUE	left
206	207	trial	1	34	0	no	p67_test	right	p67_test_right	test	1	1350	175	TRUE	assess	TRUE	left
210	211	trial	1	35	0	yes	p64_test	left	p64_test_left	test	1	731	175	TRUE	assess	TRUE	left
214	215	trial	1	36	0	yes	a53_control	left	a53_control_left	control	1	2196	175	TRUE	assess	TRUE	left
218	219	trial	1	37	0	yes	a28_test	left	a28_test_left	test	1	799	175	TRUE	assess	TRUE	left
222	223	trial	1	38	1	yes	p30_test	left	p30_test_left	test	1	680	175	TRUE	assess	TRUE	left
226	227	trial	1	39	0	yes	p67_test	left	p67_test_left	test	1	769	175	TRUE	assess	TRUE	left
230	231	trial	1	40	1	no	a68_control	right	a68_control_right	control	1	653	175	TRUE	assess	TRUE	left
234	235	trial	1	41	0	yes	p39_control	left	p39_control_left	control	1	701	175	TRUE	assess	TRUE	left
238	239	trial	1	42	1	no	p64_control	right	p64_control_right	control	1	733	175	TRUE	assess	TRUE	left
242	243	trial	1	43	1	yes	p39_test	left	p39_test_left	test	1	782	175	TRUE	assess	TRUE	left
246	247	trial	1	44	1	yes	a68_test	left	a68_test_left	test	1	2176	175	TRUE	assess	TRUE	left
250	251	trial	1	45	1	yes	a57_control	left	a57_control_left	control	1	766	175	TRUE	assess	TRUE	left
254	255	trial	1	46	1	yes	a57_test	left	a57_test_left	test	1	1188	175	TRUE	assess	TRUE	left
258	259	trial	1	47	0	no	a53_control	right	a53_control_right	control	1	940	175	TRUE	assess	TRUE	left
262	263	trial	1	48	1	yes	p67_test	left	p67_test_left	test	1	606	175	TRUE	assess	TRUE	left
266	267	trial	1	49	1	no	a68_test	right	a68_test_right	test	1	941	175	TRUE	assess	TRUE	left
270	271	trial	1	50	0	no	p30_control	right	p30_control_right	control	1	909	175	TRUE	assess	TRUE	left
274	275	trial	1	51	0	yes	p30_test	left	p30_test_left	test	1	616	175	TRUE	assess	TRUE	left
278	279	trial	1	52	1	yes	a68_control	left	a68_control_left	control	1	782	175	TRUE	assess	TRUE	left
282	283	trial	1	53	0	no	p64_control	right	p64_control_right	control	1	1657	175	TRUE	assess	TRUE	left
286	287	trial	1	54	0	yes	a53_test	left	a53_test_left	test	2	955	175	FALSE	assess	TRUE	left
291	292	trial	1	55	1	no	p39_test	right	p39_test_right	test	1	1811	175	TRUE	assess	TRUE	left
295	296	trial	1	56	1	no	a57_control	right	a57_control_right	control	1	860	175	TRUE	assess	TRUE	left
299	300	trial	1	57	1	no	p67_control	right	p67_control_right	control	1	733	175	TRUE	assess	TRUE	left
303	304	trial	1	58	1	yes	a53_control	left	a53_control_left	control	1	763	175	TRUE	assess	TRUE	left
307	308	trial	1	59	0	no	a68_test	right	a68_test_right	test	1	748	175	TRUE	assess	TRUE	left
311	312	trial	1	60	1	no	p64_test	right	p64_test_right	test	1	1217	175	TRUE	assess	TRUE	left
315	316	trial	1	61	0	no	p39_test	right	p39_test_right	test	1	930	175	TRUE	assess	TRUE	left
319	320	trial	1	62	0	no	a28_control	right	a28_control_right	control	1	712	175	TRUE	assess	TRUE	left
323	324	trial	1	63	0	no	a53_test	right	a53_test_right	test	3	NA	175	TRUE	assess	TRUE	left
333	334	trial	2	0	2	no	p49_control	right	p49_control_right	control	1	1661	175	TRUE	train	TRUE	left
337	338	trial	2	1	2	yes	a22_control	left	a22_control_left	control	3	NA	175	TRUE	train	TRUE	left
345	346	trial	2	2	0	yes	a74_test	left	a74_test_left	test	1	935	175	TRUE	train	TRUE	left
349	350	trial	2	3	2	no	p40_test	right	p40_test_right	test	1	700	175	TRUE	train	TRUE	left
353	354	trial	2	4	0	no	a59_control	right	a59_control_right	control	1	813	175	TRUE	train	TRUE	left
357	358	trial	2	5	2	no	p13_test	right	p13_test_right	test	1	647	175	TRUE	train	TRUE	left
361	362	trial	2	6	0	yes	p13_test	left	p13_test_left	test	1	679	175	TRUE	train	TRUE	left
365	366	trial	2	7	2	yes	p12_control	left	p12_control_left	control	1	603	175	TRUE	train	TRUE	left
369	370	trial	2	8	1	yes	a74_control	left	a74_control_left	control	1	675	175	TRUE	train	TRUE	left
373	374	trial	2	9	1	yes	a21_test	left	a21_test_left	test	1	650	175	TRUE	train	TRUE	left
377	378	trial	2	10	1	yes	p49_test	left	p49_test_left	test	1	666	175	TRUE	train	TRUE	left
381	382	trial	2	11	0	no	p49_test	right	p49_test_right	test	1	820	175	TRUE	train	TRUE	left
385	386	trial	2	12	1	no	p13_test	right	p13_test_right	test	1	727	175	TRUE	train	TRUE	left
389	390	trial	2	13	0	yes	a22_control	left	a22_control_left	control	1	1019	175	TRUE	train	TRUE	left
393	394	trial	2	14	1	yes	p13_test	left	p13_test_left	test	1	1016	175	TRUE	train	TRUE	left
397	398	trial	2	15	1	no	a21_control	right	a21_control_right	control	1	761	175	TRUE	train	TRUE	left
401	402	trial	2	16	2	yes	a18_control	left	a18_control_left	control	1	1101	175	TRUE	train	TRUE	left
405	406	trial	2	17	0	yes	p49_test	left	p49_test_left	test	1	1121	175	FALSE	train	TRUE	left
410	411	trial	2	18	0	no	p40_control	right	p40_control_right	control	1	957	175	TRUE	train	TRUE	left
414	415	trial	2	19	0	yes	a59_test	left	a59_test_left	test	1	918	175	TRUE	train	TRUE	left
418	419	trial	2	20	0	no	p12_control	right	p12_control_right	control	1	835	175	TRUE	train	TRUE	left
422	423	trial	2	21	3	yes	p51_test	left	p51_test_left	test	1	1557	175	TRUE	train	TRUE	left
426	427	trial	2	22	2	yes	p13_test	left	p13_test_left	test	1	1305	175	TRUE	train	TRUE	left
430	431	trial	2	23	0	yes	a74_control	left	a74_control_left	control	1	979	175	TRUE	train	TRUE	left
434	435	trial	2	24	2	no	a59_test	right	a59_test_right	test	1	699	175	TRUE	train	TRUE	left
438	439	trial	2	25	0	yes	p8_test	left	p8_test_left	test	1	1393	175	TRUE	train	TRUE	left
442	443	trial	2	26	3	yes	p12_control	left	p12_control_left	control	3	NA	175	TRUE	train	TRUE	left
448	449	trial	2	27	2	yes	a26_control	left	a26_control_left	control	1	1135	175	TRUE	train	TRUE	left
452	453	trial	2	28	3	no	p8_test	right	p8_test_right	test	1	713	175	TRUE	train	TRUE	left
456	457	trial	2	29	2	no	a18_control	right	a18_control_right	control	3	NA	175	TRUE	train	TRUE	left
462	463	trial	2	30	3	no	a22_control	right	a22_control_right	control	1	786	175	TRUE	train	TRUE	left
466	467	trial	2	31	1	yes	a59_test	left	a59_test_left	test	1	598	175	TRUE	train	TRUE	left
470	471	trial	2	32	2	no	p13_control	right	p13_control_right	control	1	788	175	TRUE	train	TRUE	left
474	475	trial	2	33	0	yes	p49_control	left	p49_control_left	control	1	1262	175	TRUE	train	TRUE	left
478	479	trial	2	34	2	yes	p51_test	left	p51_test_left	test	1	1009	175	TRUE	train	TRUE	left
482	483	trial	2	35	1	yes	p8_test	left	p8_test_left	test	1	835	175	TRUE	train	TRUE	left
486	487	trial	2	36	2	no	p12_control	right	p12_control_right	control	1	684	175	TRUE	train	TRUE	left
490	491	trial	2	37	0	yes	p51_test	left	p51_test_left	test	3	NA	175	TRUE	train	TRUE	left
496	497	trial	2	38	0	no	a22_control	right	a22_control_right	control	1	604	175	TRUE	train	TRUE	left
500	501	trial	2	39	1	yes	p12_control	left	p12_control_left	control	1	677	175	TRUE	train	TRUE	left
504	505	trial	2	40	1	yes	p51_control	left	p51_control_left	control	1	833	175	TRUE	train	TRUE	left
508	509	trial	2	41	3	yes	a22_test	left	a22_test_left	test	1	843	175	TRUE	train	TRUE	left
512	513	trial	2	42	2	yes	a18_test	left	a18_test_left	test	1	977	175	TRUE	train	TRUE	left
516	517	trial	2	43	0	no	a22_test	right	a22_test_right	test	1	427	175	TRUE	train	TRUE	left
520	521	trial	2	44	1	yes	a26_test	left	a26_test_left	test	1	1229	175	TRUE	train	TRUE	left
524	525	trial	2	45	3	yes	a22_control	left	a22_control_left	control	3	NA	175	TRUE	train	TRUE	left
530	531	trial	2	46	2	yes	p49_test	left	p49_test_left	test	1	736	175	TRUE	train	TRUE	left
534	535	trial	2	47	3	no	a26_test	right	a26_test_right	test	1	642	175	TRUE	train	TRUE	left
538	539	trial	2	48	3	no	a21_test	right	a21_test_right	test	1	768	175	TRUE	train	TRUE	left
542	543	trial	2	49	0	yes	p40_control	left	p40_control_left	control	1	739	175	TRUE	train	TRUE	left
546	547	trial	2	50	2	no	p8_control	right	p8_control_right	control	1	1107	175	TRUE	train	TRUE	left
550	551	trial	2	51	0	no	a18_test	right	a18_test_right	test	1	656	175	TRUE	train	TRUE	left
554	555	trial	2	52	2	no	a26_test	right	a26_test_right	test	1	549	175	TRUE	train	TRUE	left
558	559	trial	2	53	1	no	a59_test	right	a59_test_right	test	1	721	175	TRUE	train	TRUE	left
562	563	trial	2	54	2	yes	p40_control	left	p40_control_left	control	1	668	175	TRUE	train	TRUE	left
566	567	trial	2	55	2	yes	a21_test	left	a21_test_left	test	1	1101	175	TRUE	train	TRUE	left
570	571	trial	2	56	0	yes	a59_control	left	a59_control_left	control	1	950	175	TRUE	train	TRUE	left
574	575	trial	2	57	0	yes	a21_test	left	a21_test_left	test	1	756	175	TRUE	train	TRUE	left
578	579	trial	2	58	1	no	p13_control	right	p13_control_right	control	1	860	175	TRUE	train	TRUE	left
582	583	trial	2	59	2	no	p49_test	right	p49_test_right	test	1	1022	175	TRUE	train	TRUE	left
586	587	trial	2	60	2	no	a21_test	right	a21_test_right	test	1	832	175	TRUE	train	TRUE	left
590	591	trial	2	61	1	yes	a21_control	left	a21_control_left	control	1	1371	175	TRUE	train	TRUE	left
594	595	trial	2	62	2	no	a22_control	right	a22_control_right	control	1	1606	175	TRUE	train	TRUE	left
598	599	trial	2	63	2	no	p12_test	right	p12_test_right	test	1	843	175	TRUE	train	TRUE	left
602	603	trial	2	64	3	yes	a59_control	left	a59_control_left	control	1	889	175	TRUE	train	TRUE	left
606	607	trial	2	65	1	yes	p12_test	left	p12_test_left	test	2	2107	175	TRUE	train	TRUE	left
612	613	trial	2	66	2	no	a18_test	right	a18_test_right	test	1	1056	175	TRUE	train	TRUE	left
616	617	trial	2	67	0	yes	a26_test	left	a26_test_left	test	1	955	175	TRUE	train	TRUE	left
620	621	trial	2	68	3	no	a26_control	right	a26_control_right	control	1	627	175	TRUE	train	TRUE	left
624	625	trial	2	69	1	yes	a22_control	left	a22_control_left	control	1	1003	175	TRUE	train	TRUE	left
628	629	trial	2	70	0	no	a26_control	right	a26_control_right	control	1	542	175	TRUE	train	TRUE	left
632	633	trial	2	71	1	no	p49_test	right	p49_test_right	test	1	1015	175	TRUE	train	TRUE	left
636	637	trial	2	72	1	no	a26_control	right	a26_control_right	control	1	784	175	TRUE	train	TRUE	left
640	641	trial	2	73	1	no	a26_test	right	a26_test_right	test	1	572	175	TRUE	train	TRUE	left
644	645	trial	2	74	3	no	a59_test	right	a59_test_right	test	1	475	175	TRUE	train	TRUE	left
648	649	trial	2	75	3	yes	p8_test	left	p8_test_left	test	1	670	175	TRUE	train	TRUE	left
652	653	trial	2	76	0	no	p13_control	right	p13_control_right	control	1	572	175	TRUE	train	TRUE	left
656	657	trial	2	77	0	no	p8_test	right	p8_test_right	test	1	592	175	TRUE	train	TRUE	left
660	661	trial	2	78	3	no	p49_control	right	p49_control_right	control	1	704	175	TRUE	train	TRUE	left
664	665	trial	2	79	3	no	p51_control	right	p51_control_right	control	1	739	175	TRUE	train	TRUE	left
668	669	trial	2	80	0	no	a21_test	right	a21_test_right	test	1	639	175	TRUE	train	TRUE	left
672	673	trial	2	81	2	no	p8_test	right	p8_test_right	test	1	2686	175	TRUE	train	TRUE	left
676	677	trial	2	82	0	yes	p12_control	left	p12_control_left	control	1	932	175	TRUE	train	TRUE	left
680	681	trial	2	83	2	yes	p40_test	left	p40_test_left	test	1	826	175	TRUE	train	TRUE	left
684	685	trial	2	84	3	no	a74_control	right	a74_control_right	control	1	2294	175	TRUE	train	TRUE	left
688	689	trial	2	85	3	no	p13_test	right	p13_test_right	test	1	739	175	TRUE	train	TRUE	left
692	693	trial	2	86	1	no	p8_control	right	p8_control_right	control	1	818	175	TRUE	train	TRUE	left
696	697	trial	2	87	3	yes	p8_control	left	p8_control_left	control	1	1260	175	TRUE	train	TRUE	left
700	701	trial	2	88	3	yes	p40_test	left	p40_test_left	test	3	NA	175	TRUE	train	TRUE	left
706	707	trial	2	89	0	yes	p12_test	left	p12_test_left	test	1	2355	175	TRUE	train	TRUE	left
710	711	trial	2	90	2	no	a74_test	right	a74_test_right	test	1	1990	175	TRUE	train	TRUE	left
714	715	trial	2	91	1	no	p51_control	right	p51_control_right	control	1	1031	175	TRUE	train	TRUE	left
718	719	trial	2	92	3	yes	p12_test	left	p12_test_left	test	2	941	175	FALSE	train	TRUE	left
723	724	trial	2	93	1	yes	a26_control	left	a26_control_left	control	1	963	175	TRUE	train	TRUE	left
727	728	trial	2	94	3	no	a22_test	right	a22_test_right	test	1	865	175	TRUE	train	TRUE	left
731	732	trial	2	95	3	yes	a21_control	left	a21_control_left	control	1	2068	175	TRUE	train	TRUE	left
739	740	trial	3	0	2	no	a59_control	right	a59_control_right	control	1	680	175	TRUE	train	TRUE	left
743	744	trial	3	1	1	no	a74_test	right	a74_test_right	test	1	1187	175	TRUE	train	TRUE	left
747	748	trial	3	2	0	yes	p40_test	left	p40_test_left	test	1	914	175	TRUE	train	TRUE	left
751	752	trial	3	3	1	no	p40_control	right	p40_control_right	control	1	848	175	TRUE	train	TRUE	left
755	756	trial	3	4	3	yes	a74_control	left	a74_control_left	control	1	1609	175	TRUE	train	TRUE	left
759	760	trial	3	5	3	no	p51_test	right	p51_test_right	test	1	777	175	TRUE	train	TRUE	left
763	764	trial	3	6	0	no	p13_test	right	p13_test_right	test	1	631	175	TRUE	train	TRUE	left
767	768	trial	3	7	3	yes	a18_control	left	a18_control_left	control	1	1748	175	TRUE	train	TRUE	left
771	772	trial	3	8	1	yes	p13_control	left	p13_control_left	control	3	NA	175	TRUE	train	TRUE	left
777	778	trial	3	9	3	yes	p13_control	left	p13_control_left	control	1	745	175	TRUE	train	TRUE	left
781	782	trial	3	10	1	no	a22_test	right	a22_test_right	test	1	858	175	TRUE	train	TRUE	left
785	786	trial	3	11	1	yes	a74_test	left	a74_test_left	test	1	836	175	TRUE	train	TRUE	left
789	790	trial	3	12	3	no	a21_control	right	a21_control_right	control	1	1204	175	TRUE	train	TRUE	left
793	794	trial	3	13	2	no	a26_control	right	a26_control_right	control	1	763	175	TRUE	train	TRUE	left
797	798	trial	3	14	2	yes	p12_test	left	p12_test_left	test	3	NA	175	TRUE	train	TRUE	left
803	804	trial	3	15	0	no	a59_test	right	a59_test_right	test	1	1158	175	TRUE	train	TRUE	left
807	808	trial	3	16	1	no	p40_test	right	p40_test_right	test	1	658	175	TRUE	train	TRUE	left
811	812	trial	3	17	3	no	p40_control	right	p40_control_right	control	1	742	175	TRUE	train	TRUE	left
815	816	trial	3	18	1	yes	a18_control	left	a18_control_left	control	1	895	175	TRUE	train	TRUE	left
819	820	trial	3	19	1	no	p51_test	right	p51_test_right	test	1	752	175	TRUE	train	TRUE	left
823	824	trial	3	20	3	yes	p51_control	left	p51_control_left	control	1	804	175	TRUE	train	TRUE	left
827	828	trial	3	21	0	no	a74_control	right	a74_control_right	control	1	956	175	TRUE	train	TRUE	left
831	832	trial	3	22	1	yes	a59_control	left	a59_control_left	control	1	892	175	TRUE	train	TRUE	left
835	836	trial	3	23	0	yes	p13_control	left	p13_control_left	control	1	1234	175	TRUE	train	TRUE	left
839	840	trial	3	24	1	yes	p40_test	left	p40_test_left	test	1	1055	175	TRUE	train	TRUE	left
843	844	trial	3	25	3	yes	a18_test	left	a18_test_left	test	1	747	175	TRUE	train	TRUE	left
847	848	trial	3	26	2	no	p51_test	right	p51_test_right	test	3	NA	175	TRUE	train	TRUE	left
853	854	trial	3	27	2	yes	p51_control	left	p51_control_left	control	3	NA	175	TRUE	train	TRUE	left
859	860	trial	3	28	3	no	p12_control	right	p12_control_right	control	1	1610	175	TRUE	train	TRUE	left
863	864	trial	3	29	0	no	a18_control	right	a18_control_right	control	1	694	175	TRUE	train	TRUE	left
867	868	trial	3	30	0	no	p51_test	right	p51_test_right	test	1	1909	175	TRUE	train	TRUE	left
871	872	trial	3	31	2	no	a21_control	right	a21_control_right	control	1	858	175	TRUE	train	TRUE	left
875	876	trial	3	32	1	no	p49_control	right	p49_control_right	control	1	1297	175	TRUE	train	TRUE	left
879	880	trial	3	33	0	no	a21_control	right	a21_control_right	control	1	1030	175	TRUE	train	TRUE	left
883	884	trial	3	34	3	no	p12_test	right	p12_test_right	test	1	720	175	TRUE	train	TRUE	left
887	888	trial	3	35	0	no	p49_control	right	p49_control_right	control	1	977	175	TRUE	train	TRUE	left
891	892	trial	3	36	2	yes	p49_control	left	p49_control_left	control	1	1149	175	FALSE	train	TRUE	left
898	899	trial	3	37	0	yes	a18_test	left	a18_test_left	test	1	1040	175	TRUE	train	TRUE	left
902	903	trial	3	38	2	yes	a74_control	left	a74_control_left	control	1	1060	175	TRUE	train	TRUE	left
906	907	trial	3	39	3	yes	a26_test	left	a26_test_left	test	3	NA	175	TRUE	train	TRUE	left
912	913	trial	3	40	2	yes	p13_control	left	p13_control_left	control	1	755	175	TRUE	train	TRUE	left
916	917	trial	3	41	0	yes	a18_control	left	a18_control_left	control	1	740	175	TRUE	train	TRUE	left
920	921	trial	3	42	2	no	p51_control	right	p51_control_right	control	1	2258	175	FALSE	train	TRUE	left
925	926	trial	3	43	0	no	p40_test	right	p40_test_right	test	1	882	175	TRUE	train	TRUE	left
929	930	trial	3	44	1	no	a59_control	right	a59_control_right	control	1	727	175	TRUE	train	TRUE	left
933	934	trial	3	45	3	no	a59_control	right	a59_control_right	control	1	1054	175	TRUE	train	TRUE	left
937	938	trial	3	46	1	yes	a18_test	left	a18_test_left	test	1	1486	175	TRUE	train	TRUE	left
941	942	trial	3	47	1	no	p12_control	right	p12_control_right	control	1	1265	175	TRUE	train	TRUE	left
945	946	trial	3	48	3	yes	a59_test	left	a59_test_left	test	1	2191	175	TRUE	train	TRUE	left
949	950	trial	3	49	2	yes	a26_test	left	a26_test_left	test	1	637	175	TRUE	train	TRUE	left
953	954	trial	3	50	3	yes	p49_control	left	p49_control_left	control	1	483	175	TRUE	train	TRUE	left
957	958	trial	3	51	3	no	a18_control	right	a18_control_right	control	1	552	175	TRUE	train	TRUE	left
961	962	trial	3	52	1	no	a74_control	right	a74_control_right	control	1	1063	175	TRUE	train	TRUE	left
965	966	trial	3	53	3	no	p49_test	right	p49_test_right	test	1	2056	175	TRUE	train	TRUE	left
969	970	trial	3	54	3	no	a18_test	right	a18_test_right	test	1	913	175	TRUE	train	TRUE	left
973	974	trial	3	55	0	yes	p51_control	left	p51_control_left	control	1	1706	175	TRUE	train	TRUE	left
977	978	trial	3	56	1	yes	p40_control	left	p40_control_left	control	1	796	175	TRUE	train	TRUE	left
981	982	trial	3	57	1	yes	p51_test	left	p51_test_left	test	1	863	175	TRUE	train	TRUE	left
985	986	trial	3	58	1	no	a18_test	right	a18_test_right	test	1	623	175	TRUE	train	TRUE	left
989	990	trial	3	59	3	no	p13_control	right	p13_control_right	control	1	647	175	TRUE	train	TRUE	left
993	994	trial	3	60	2	no	a22_test	right	a22_test_right	test	1	918	175	TRUE	train	TRUE	left
997	998	trial	3	61	1	yes	p49_control	left	p49_control_left	control	1	833	175	TRUE	train	TRUE	left
1001	1002	trial	3	62	2	yes	a59_test	left	a59_test_left	test	1	819	175	TRUE	train	TRUE	left
1005	1006	trial	3	63	2	yes	a21_control	left	a21_control_left	control	1	613	175	TRUE	train	TRUE	left
1009	1010	trial	3	64	0	no	a74_test	right	a74_test_right	test	1	766	175	TRUE	train	TRUE	left
1013	1014	trial	3	65	1	no	a22_control	right	a22_control_right	control	1	670	175	TRUE	train	TRUE	left
1017	1018	trial	3	66	3	yes	a21_test	left	a21_test_left	test	3	NA	175	TRUE	train	TRUE	left
1023	1024	trial	3	67	1	yes	a22_test	left	a22_test_left	test	1	2139	175	TRUE	train	TRUE	left
1027	1028	trial	3	68	3	no	p8_control	right	p8_control_right	control	1	1009	175	TRUE	train	TRUE	left
1031	1032	trial	3	69	0	yes	p8_control	left	p8_control_left	control	3	NA	175	TRUE	train	TRUE	left
1037	1038	trial	3	70	3	yes	a26_control	left	a26_control_left	control	3	NA	175	TRUE	train	TRUE	left
1043	1044	trial	3	71	2	yes	a59_control	left	a59_control_left	control	1	606	175	TRUE	train	TRUE	left
1047	1048	trial	3	72	3	yes	p49_test	left	p49_test_left	test	1	855	175	TRUE	train	TRUE	left
1051	1052	trial	3	73	3	yes	p13_test	left	p13_test_left	test	1	1041	175	TRUE	train	TRUE	left
1055	1056	trial	3	74	0	no	p12_test	right	p12_test_right	test	1	864	175	TRUE	train	TRUE	left
1059	1060	trial	3	75	0	no	p8_control	right	p8_control_right	control	1	919	175	TRUE	train	TRUE	left
1063	1064	trial	3	76	1	no	p12_test	right	p12_test_right	test	1	2142	175	TRUE	train	TRUE	left
1067	1068	trial	3	77	3	yes	a74_test	left	a74_test_left	test	2	1071	175	FALSE	train	TRUE	left
1072	1073	trial	3	78	2	no	p40_control	right	p40_control_right	control	1	745	175	TRUE	train	TRUE	left
1076	1077	trial	3	79	2	yes	p8_test	left	p8_test_left	test	1	800	175	TRUE	train	TRUE	left
1080	1081	trial	3	80	0	yes	a26_control	left	a26_control_left	control	1	705	175	TRUE	train	TRUE	left
1084	1085	trial	3	81	2	yes	a74_test	left	a74_test_left	test	1	934	175	TRUE	train	TRUE	left
1088	1089	trial	3	82	0	no	p51_control	right	p51_control_right	control	1	863	175	TRUE	train	TRUE	left
1092	1093	trial	3	83	1	no	p8_test	right	p8_test_right	test	1	1063	175	TRUE	train	TRUE	left
1096	1097	trial	3	84	3	yes	p40_control	left	p40_control_left	control	1	949	175	TRUE	train	TRUE	left
1100	1101	trial	3	85	1	no	a21_test	right	a21_test_right	test	1	2125	175	FALSE	train	TRUE	left
1106	1107	trial	3	86	2	no	a74_control	right	a74_control_right	control	1	841	175	TRUE	train	TRUE	left
1110	1111	trial	3	87	3	no	a74_test	right	a74_test_right	test	1	1030	175	TRUE	train	TRUE	left
1114	1115	trial	3	88	2	yes	a22_test	left	a22_test_left	test	1	675	175	TRUE	train	TRUE	left
1118	1119	trial	3	89	1	yes	p8_control	left	p8_control_left	control	3	NA	175	TRUE	train	TRUE	left
1124	1125	trial	3	90	0	no	a26_test	right	a26_test_right	test	1	725	175	TRUE	train	TRUE	left
1128	1129	trial	3	91	0	yes	a21_control	left	a21_control_left	control	1	764	175	TRUE	train	TRUE	left
1132	1133	trial	3	92	1	no	a18_control	right	a18_control_right	control	1	850	175	TRUE	train	TRUE	left
1136	1137	trial	3	93	2	yes	p8_control	left	p8_control_left	control	1	1094	175	TRUE	train	TRUE	left
1140	1141	trial	3	94	3	no	p40_test	right	p40_test_right	test	1	1538	175	TRUE	train	TRUE	left
1144	1145	trial	3	95	0	yes	a22_test	left	a22_test_left	test	1	774	175	TRUE	train	TRUE	left
12	13	trial	0	0	2	yes	practice_control	left	practice_control_left	control	2	649	176	TRUE	practice	TRUE	left
18	19	trial	0	1	1	no	practice_control	right	practice_control_right	control	1	606	176	TRUE	practice	TRUE	left
22	23	trial	0	2	2	no	practice_test	right	practice_test_right	test	1	808	176	TRUE	practice	TRUE	left
26	27	trial	0	3	0	no	practice_control	right	practice_control_right	control	1	692	176	TRUE	practice	TRUE	left
30	31	trial	0	4	2	no	practice_control	right	practice_control_right	control	1	498	176	TRUE	practice	TRUE	left
34	35	trial	0	5	0	no	practice_test	right	practice_test_right	test	1	506	176	TRUE	practice	TRUE	left
38	39	trial	0	6	0	yes	practice_test	left	practice_test_left	test	1	861	176	TRUE	practice	TRUE	left
42	43	trial	0	7	0	yes	practice_control	left	practice_control_left	control	1	784	176	TRUE	practice	TRUE	left
46	47	trial	0	8	1	yes	practice_control	left	practice_control_left	control	1	542	176	TRUE	practice	TRUE	left
50	51	trial	0	9	1	no	practice_test	right	practice_test_right	test	1	787	176	TRUE	practice	TRUE	left
54	55	trial	0	10	1	yes	practice_test	left	practice_test_left	test	1	845	176	TRUE	practice	TRUE	left
58	59	trial	0	11	2	yes	practice_test	left	practice_test_left	test	1	696	176	FALSE	practice	TRUE	left
67	68	trial	1	0	0	no	p58_test	right	p58_test_right	test	1	1097	176	TRUE	assess	TRUE	left
71	72	trial	1	1	0	no	a25_control	right	a25_control_right	control	1	910	176	TRUE	assess	TRUE	left
75	76	trial	1	2	1	no	a26_control	right	a26_control_right	control	1	624	176	TRUE	assess	TRUE	left
79	80	trial	1	3	1	yes	a52_test	left	a52_test_left	test	1	643	176	TRUE	assess	TRUE	left
83	84	trial	1	4	0	no	a14_control	right	a14_control_right	control	1	751	176	TRUE	assess	TRUE	left
87	88	trial	1	5	0	no	p58_control	right	p58_control_right	control	1	2098	176	TRUE	assess	TRUE	left
91	92	trial	1	6	0	no	a26_control	right	a26_control_right	control	1	601	176	TRUE	assess	TRUE	left
95	96	trial	1	7	1	yes	p36_test	left	p36_test_left	test	1	1145	176	TRUE	assess	TRUE	left
99	100	trial	1	8	1	yes	a25_control	left	a25_control_left	control	1	786	176	TRUE	assess	TRUE	left
103	104	trial	1	9	1	no	a52_test	right	a52_test_right	test	1	734	176	TRUE	assess	TRUE	left
107	108	trial	1	10	0	no	p54_test	right	p54_test_right	test	1	840	176	TRUE	assess	TRUE	left
111	112	trial	1	11	0	yes	p58_test	left	p58_test_left	test	1	735	176	TRUE	assess	TRUE	left
115	116	trial	1	12	1	no	p54_control	right	p54_control_right	control	1	599	176	TRUE	assess	TRUE	left
119	120	trial	1	13	1	no	p54_test	right	p54_test_right	test	1	772	176	TRUE	assess	TRUE	left
123	124	trial	1	14	0	yes	p58_control	left	p58_control_left	control	1	1151	176	TRUE	assess	TRUE	left
127	128	trial	1	15	1	yes	p54_test	left	p54_test_left	test	1	1046	176	TRUE	assess	TRUE	left
131	132	trial	1	16	0	no	p36_control	right	p36_control_right	control	1	807	176	TRUE	assess	TRUE	left
135	136	trial	1	17	1	yes	p54_control	left	p54_control_left	control	1	648	176	TRUE	assess	TRUE	left
139	140	trial	1	18	0	yes	a14_test	left	a14_test_left	test	1	840	176	TRUE	assess	TRUE	left
143	144	trial	1	19	0	no	a14_test	right	a14_test_right	test	1	1149	176	TRUE	assess	TRUE	left
147	148	trial	1	20	1	no	a25_control	right	a25_control_right	control	1	900	176	TRUE	assess	TRUE	left
151	152	trial	1	21	0	yes	a52_test	left	a52_test_left	test	1	835	176	TRUE	assess	TRUE	left
155	156	trial	1	22	0	yes	a26_test	left	a26_test_left	test	1	820	176	TRUE	assess	TRUE	left
159	160	trial	1	23	0	no	p54_control	right	p54_control_right	control	1	1746	176	TRUE	assess	TRUE	left
163	164	trial	1	24	1	no	p36_control	right	p36_control_right	control	1	902	176	TRUE	assess	TRUE	left
167	168	trial	1	25	1	no	p58_control	right	p58_control_right	control	1	742	176	TRUE	assess	TRUE	left
171	172	trial	1	26	1	no	a14_control	right	a14_control_right	control	1	739	176	TRUE	assess	TRUE	left
175	176	trial	1	27	1	no	p36_test	right	p36_test_right	test	1	1214	176	TRUE	assess	TRUE	left
179	180	trial	1	28	0	yes	p63_control	left	p63_control_left	control	3	NA	176	TRUE	assess	TRUE	left
185	186	trial	1	29	1	no	a25_test	right	a25_test_right	test	1	836	176	TRUE	assess	TRUE	left
189	190	trial	1	30	1	yes	a25_test	left	a25_test_left	test	1	724	176	TRUE	assess	TRUE	left
193	194	trial	1	31	1	no	p63_control	right	p63_control_right	control	1	866	176	TRUE	assess	TRUE	left
197	198	trial	1	32	0	no	p63_control	right	p63_control_right	control	1	1004	176	TRUE	assess	TRUE	left
201	202	trial	1	33	1	yes	p58_test	left	p58_test_left	test	1	594	176	TRUE	assess	TRUE	left
205	206	trial	1	34	1	yes	a52_control	left	a52_control_left	control	1	710	176	TRUE	assess	TRUE	left
209	210	trial	1	35	0	yes	p36_control	left	p36_control_left	control	1	868	176	TRUE	assess	TRUE	left
213	214	trial	1	36	0	yes	a25_test	left	a25_test_left	test	1	764	176	TRUE	assess	TRUE	left
217	218	trial	1	37	1	yes	a14_test	left	a14_test_left	test	1	644	176	TRUE	assess	TRUE	left
221	222	trial	1	38	1	no	a52_control	right	a52_control_right	control	1	614	176	TRUE	assess	TRUE	left
225	226	trial	1	39	1	yes	a26_test	left	a26_test_left	test	1	728	176	TRUE	assess	TRUE	left
229	230	trial	1	40	0	no	a25_test	right	a25_test_right	test	1	789	176	TRUE	assess	TRUE	left
233	234	trial	1	41	0	no	a52_test	right	a52_test_right	test	1	731	176	TRUE	assess	TRUE	left
237	238	trial	1	42	0	yes	a26_control	left	a26_control_left	control	1	1624	176	TRUE	assess	TRUE	left
241	242	trial	1	43	1	yes	p36_control	left	p36_control_left	control	1	998	176	TRUE	assess	TRUE	left
245	246	trial	1	44	0	no	p63_test	right	p63_test_right	test	1	1566	176	TRUE	assess	TRUE	left
249	250	trial	1	45	1	yes	a14_control	left	a14_control_left	control	1	923	176	TRUE	assess	TRUE	left
253	254	trial	1	46	0	no	p36_test	right	p36_test_right	test	3	NA	176	TRUE	assess	TRUE	left
259	260	trial	1	47	0	yes	a14_control	left	a14_control_left	control	1	762	176	TRUE	assess	TRUE	left
263	264	trial	1	48	1	no	a14_test	right	a14_test_right	test	1	698	176	TRUE	assess	TRUE	left
267	268	trial	1	49	0	no	a52_control	right	a52_control_right	control	1	998	176	TRUE	assess	TRUE	left
271	272	trial	1	50	1	no	a26_test	right	a26_test_right	test	1	1136	176	TRUE	assess	TRUE	left
275	276	trial	1	51	0	yes	p54_test	left	p54_test_left	test	3	NA	176	TRUE	assess	TRUE	left
281	282	trial	1	52	1	yes	p58_control	left	p58_control_left	control	1	852	176	TRUE	assess	TRUE	left
285	286	trial	1	53	0	no	a26_test	right	a26_test_right	test	1	712	176	TRUE	assess	TRUE	left
289	290	trial	1	54	0	yes	p36_test	left	p36_test_left	test	1	631	176	TRUE	assess	TRUE	left
293	294	trial	1	55	0	yes	a52_control	left	a52_control_left	control	1	2172	176	TRUE	assess	TRUE	left
297	298	trial	1	56	0	yes	a25_control	left	a25_control_left	control	1	765	176	TRUE	assess	TRUE	left
301	302	trial	1	57	0	yes	p54_control	left	p54_control_left	control	1	759	176	TRUE	assess	TRUE	left
305	306	trial	1	58	1	no	p63_test	right	p63_test_right	test	1	1031	176	TRUE	assess	TRUE	left
309	310	trial	1	59	1	yes	a26_control	left	a26_control_left	control	1	728	176	TRUE	assess	TRUE	left
313	314	trial	1	60	0	yes	p63_test	left	p63_test_left	test	1	743	176	TRUE	assess	TRUE	left
317	318	trial	1	61	1	yes	p63_control	left	p63_control_left	control	1	723	176	TRUE	assess	TRUE	left
321	322	trial	1	62	1	no	p58_test	right	p58_test_right	test	1	788	176	TRUE	assess	TRUE	left
325	326	trial	1	63	1	yes	p63_test	left	p63_test_left	test	1	740	176	TRUE	assess	TRUE	left
333	334	trial	2	0	3	no	a6_control	right	a6_control_right	control	1	1641	176	TRUE	train	TRUE	left
337	338	trial	2	1	2	no	a7_control	right	a7_control_right	control	1	1548	176	TRUE	train	TRUE	left
341	342	trial	2	2	3	yes	a51_test	left	a51_test_left	test	1	628	176	TRUE	train	TRUE	left
345	346	trial	2	3	0	no	a51_control	right	a51_control_right	control	1	764	176	TRUE	train	TRUE	left
349	350	trial	2	4	3	yes	a18_control	left	a18_control_left	control	1	1068	176	TRUE	train	TRUE	left
353	354	trial	2	5	1	no	p17_test	right	p17_test_right	test	1	884	176	TRUE	train	TRUE	left
357	358	trial	2	6	0	yes	p4_control	left	p4_control_left	control	1	960	176	TRUE	train	TRUE	left
361	362	trial	2	7	1	no	a5_test	right	a5_test_right	test	1	1270	176	TRUE	train	TRUE	left
365	366	trial	2	8	2	yes	a7_control	left	a7_control_left	control	1	825	176	TRUE	train	TRUE	left
369	370	trial	2	9	0	no	p4_control	right	p4_control_right	control	1	988	176	TRUE	train	TRUE	left
373	374	trial	2	10	0	no	a6_test	right	a6_test_right	test	1	1200	176	TRUE	train	TRUE	left
377	378	trial	2	11	2	yes	p50_control	left	p50_control_left	control	1	686	176	TRUE	train	TRUE	left
381	382	trial	2	12	2	yes	a18_control	left	a18_control_left	control	1	858	176	TRUE	train	TRUE	left
385	386	trial	2	13	2	yes	p50_test	left	p50_test_left	test	1	788	176	TRUE	train	TRUE	left
389	390	trial	2	14	3	no	p17_test	right	p17_test_right	test	1	528	176	TRUE	train	TRUE	left
393	394	trial	2	15	0	yes	a67_control	left	a67_control_left	control	3	NA	176	TRUE	train	TRUE	left
399	400	trial	2	16	2	no	a51_control	right	a51_control_right	control	1	1004	176	TRUE	train	TRUE	left
403	404	trial	2	17	0	no	a18_test	right	a18_test_right	test	1	659	176	TRUE	train	TRUE	left
407	408	trial	2	18	2	yes	a5_control	left	a5_control_left	control	1	1806	176	TRUE	train	TRUE	left
411	412	trial	2	19	3	yes	a7_control	left	a7_control_left	control	1	986	176	TRUE	train	TRUE	left
415	416	trial	2	20	0	no	a51_test	right	a51_test_right	test	1	2159	176	TRUE	train	TRUE	left
419	420	trial	2	21	1	yes	a6_control	left	a6_control_left	control	1	909	176	TRUE	train	TRUE	left
423	424	trial	2	22	2	yes	p71_test	left	p71_test_left	test	1	2169	176	TRUE	train	TRUE	left
427	428	trial	2	23	2	no	a67_control	right	a67_control_right	control	1	968	176	TRUE	train	TRUE	left
431	432	trial	2	24	0	yes	p71_test	left	p71_test_left	test	1	655	176	TRUE	train	TRUE	left
435	436	trial	2	25	3	no	a67_control	right	a67_control_right	control	1	749	176	TRUE	train	TRUE	left
439	440	trial	2	26	3	no	a67_test	right	a67_test_right	test	1	810	176	TRUE	train	TRUE	left
443	444	trial	2	27	1	no	a7_control	right	a7_control_right	control	1	1582	176	TRUE	train	TRUE	left
447	448	trial	2	28	3	no	a51_control	right	a51_control_right	control	1	832	176	TRUE	train	TRUE	left
451	452	trial	2	29	3	yes	a5_test	left	a5_test_left	test	1	785	176	TRUE	train	TRUE	left
455	456	trial	2	30	2	no	p50_test	right	p50_test_right	test	1	692	176	TRUE	train	TRUE	left
459	460	trial	2	31	1	yes	a67_test	left	a67_test_left	test	1	746	176	TRUE	train	TRUE	left
463	464	trial	2	32	1	no	p71_test	right	p71_test_right	test	1	704	176	TRUE	train	TRUE	left
467	468	trial	2	33	0	no	a7_control	right	a7_control_right	control	1	1009	176	TRUE	train	TRUE	left
471	472	trial	2	34	3	no	p29_test	right	p29_test_right	test	1	705	176	TRUE	train	TRUE	left
475	476	trial	2	35	0	no	a7_test	right	a7_test_right	test	1	483	176	TRUE	train	TRUE	left
479	480	trial	2	36	0	yes	p4_test	left	p4_test_left	test	1	643	176	TRUE	train	TRUE	left
483	484	trial	2	37	1	yes	p71_control	left	p71_control_left	control	1	2285	176	TRUE	train	TRUE	left
487	488	trial	2	38	1	yes	a6_test	left	a6_test_left	test	1	1258	176	TRUE	train	TRUE	left
491	492	trial	2	39	1	yes	a7_test	left	a7_test_left	test	1	644	176	TRUE	train	TRUE	left
495	496	trial	2	40	0	no	p14_control	right	p14_control_right	control	1	1655	176	TRUE	train	TRUE	left
499	500	trial	2	41	0	no	p17_control	right	p17_control_right	control	1	2758	176	TRUE	train	TRUE	left
503	504	trial	2	42	1	no	p50_test	right	p50_test_right	test	1	745	176	TRUE	train	TRUE	left
507	508	trial	2	43	2	yes	a51_test	left	a51_test_left	test	1	884	176	TRUE	train	TRUE	left
511	512	trial	2	44	2	yes	p17_control	left	p17_control_left	control	1	837	176	TRUE	train	TRUE	left
515	516	trial	2	45	2	no	p14_test	right	p14_test_right	test	1	932	176	TRUE	train	TRUE	left
519	520	trial	2	46	0	yes	a6_test	left	a6_test_left	test	1	883	176	TRUE	train	TRUE	left
523	524	trial	2	47	3	yes	p29_test	left	p29_test_left	test	1	800	176	TRUE	train	TRUE	left
527	528	trial	2	48	0	no	p14_test	right	p14_test_right	test	3	NA	176	TRUE	train	TRUE	left
533	534	trial	2	49	1	no	a67_control	right	a67_control_right	control	1	791	176	TRUE	train	TRUE	left
537	538	trial	2	50	2	no	p4_control	right	p4_control_right	control	1	1511	176	TRUE	train	TRUE	left
541	542	trial	2	51	0	no	p71_test	right	p71_test_right	test	1	465	176	TRUE	train	TRUE	left
545	546	trial	2	52	2	yes	p14_test	left	p14_test_left	test	1	608	176	TRUE	train	TRUE	left
549	550	trial	2	53	1	yes	p14_control	left	p14_control_left	control	1	998	176	TRUE	train	TRUE	left
553	554	trial	2	54	2	no	a18_test	right	a18_test_right	test	1	702	176	TRUE	train	TRUE	left
557	558	trial	2	55	1	no	p17_control	right	p17_control_right	control	1	839	176	TRUE	train	TRUE	left
561	562	trial	2	56	3	yes	p4_control	left	p4_control_left	control	3	NA	176	TRUE	train	TRUE	left
567	568	trial	2	57	0	no	p71_control	right	p71_control_right	control	1	734	176	TRUE	train	TRUE	left
571	572	trial	2	58	0	yes	p17_test	left	p17_test_left	test	1	767	176	TRUE	train	TRUE	left
575	576	trial	2	59	1	yes	p71_test	left	p71_test_left	test	1	1029	176	TRUE	train	TRUE	left
579	580	trial	2	60	3	yes	a67_test	left	a67_test_left	test	3	NA	176	TRUE	train	TRUE	left
585	586	trial	2	61	2	yes	p14_control	left	p14_control_left	control	1	793	176	TRUE	train	TRUE	left
589	590	trial	2	62	1	yes	a51_control	left	a51_control_left	control	1	684	176	TRUE	train	TRUE	left
593	594	trial	2	63	1	yes	p4_control	left	p4_control_left	control	1	534	176	TRUE	train	TRUE	left
597	598	trial	2	64	1	yes	p29_control	left	p29_control_left	control	1	781	176	TRUE	train	TRUE	left
601	602	trial	2	65	0	no	p50_test	right	p50_test_right	test	1	775	176	TRUE	train	TRUE	left
605	606	trial	2	66	0	yes	a51_test	left	a51_test_left	test	1	698	176	TRUE	train	TRUE	left
609	610	trial	2	67	2	yes	a67_test	left	a67_test_left	test	1	739	176	TRUE	train	TRUE	left
613	614	trial	2	68	3	yes	p17_control	left	p17_control_left	control	1	713	176	TRUE	train	TRUE	left
617	618	trial	2	69	3	yes	p29_control	left	p29_control_left	control	1	640	176	TRUE	train	TRUE	left
621	622	trial	2	70	0	no	p4_test	right	p4_test_right	test	1	843	176	TRUE	train	TRUE	left
625	626	trial	2	71	1	yes	a5_test	left	a5_test_left	test	1	738	176	TRUE	train	TRUE	left
629	630	trial	2	72	0	no	p29_test	right	p29_test_right	test	1	784	176	TRUE	train	TRUE	left
633	634	trial	2	73	2	no	a18_control	right	a18_control_right	control	1	1050	176	TRUE	train	TRUE	left
637	638	trial	2	74	1	no	a7_test	right	a7_test_right	test	1	709	176	TRUE	train	TRUE	left
641	642	trial	2	75	1	no	p71_control	right	p71_control_right	control	1	713	176	TRUE	train	TRUE	left
645	646	trial	2	76	3	yes	p14_test	left	p14_test_left	test	1	618	176	TRUE	train	TRUE	left
649	650	trial	2	77	1	no	a5_control	right	a5_control_right	control	1	659	176	TRUE	train	TRUE	left
653	654	trial	2	78	2	no	a51_test	right	a51_test_right	test	1	863	176	TRUE	train	TRUE	left
657	658	trial	2	79	2	yes	p4_test	left	p4_test_left	test	1	666	176	TRUE	train	TRUE	left
661	662	trial	2	80	2	no	a6_test	right	a6_test_right	test	1	1045	176	TRUE	train	TRUE	left
665	666	trial	2	81	2	yes	a7_test	left	a7_test_left	test	1	935	176	TRUE	train	TRUE	left
669	670	trial	2	82	3	yes	p14_control	left	p14_control_left	control	1	929	176	FALSE	train	TRUE	left
674	675	trial	2	83	3	no	p14_test	right	p14_test_right	test	1	753	176	TRUE	train	TRUE	left
678	679	trial	2	84	3	yes	p71_test	left	p71_test_left	test	1	821	176	TRUE	train	TRUE	left
682	683	trial	2	85	3	yes	a51_control	left	a51_control_left	control	1	510	176	TRUE	train	TRUE	left
686	687	trial	2	86	0	no	a6_control	right	a6_control_right	control	1	573	176	TRUE	train	TRUE	left
690	691	trial	2	87	1	no	p4_test	right	p4_test_right	test	1	2681	176	TRUE	train	TRUE	left
694	695	trial	2	88	2	no	p17_control	right	p17_control_right	control	1	650	176	TRUE	train	TRUE	left
698	699	trial	2	89	1	no	a6_control	right	a6_control_right	control	1	812	176	TRUE	train	TRUE	left
702	703	trial	2	90	2	no	a7_test	right	a7_test_right	test	1	607	176	TRUE	train	TRUE	left
706	707	trial	2	91	2	yes	a18_test	left	a18_test_left	test	1	938	176	TRUE	train	TRUE	left
710	711	trial	2	92	1	yes	a67_control	left	a67_control_left	control	1	961	176	TRUE	train	TRUE	left
714	715	trial	2	93	3	no	p71_control	right	p71_control_right	control	1	842	176	TRUE	train	TRUE	left
718	719	trial	2	94	0	yes	a18_test	left	a18_test_left	test	1	655	176	TRUE	train	TRUE	left
722	723	trial	2	95	2	no	p71_test	right	p71_test_right	test	1	637	176	TRUE	train	TRUE	left
730	731	trial	3	0	3	no	a18_control	right	a18_control_right	control	3	NA	176	TRUE	train	TRUE	left
736	737	trial	3	1	3	no	a5_control	right	a5_control_right	control	1	957	176	TRUE	train	TRUE	left
740	741	trial	3	2	3	no	p50_control	right	p50_control_right	control	1	759	176	TRUE	train	TRUE	left
744	745	trial	3	3	3	no	a7_test	right	a7_test_right	test	1	746	176	TRUE	train	TRUE	left
748	749	trial	3	4	1	yes	p14_test	left	p14_test_left	test	1	1116	176	TRUE	train	TRUE	left
752	753	trial	3	5	0	yes	p50_test	left	p50_test_left	test	2	1793	176	TRUE	train	TRUE	left
758	759	trial	3	6	3	yes	p50_control	left	p50_control_left	control	1	829	176	TRUE	train	TRUE	left
762	763	trial	3	7	2	yes	p29_test	left	p29_test_left	test	1	648	176	TRUE	train	TRUE	left
766	767	trial	3	8	2	no	p29_control	right	p29_control_right	control	1	691	176	TRUE	train	TRUE	left
770	771	trial	3	9	2	no	p29_test	right	p29_test_right	test	2	2333	176	TRUE	train	TRUE	left
776	777	trial	3	10	3	yes	p50_test	left	p50_test_left	test	1	645	176	TRUE	train	TRUE	left
780	781	trial	3	11	3	no	p14_control	right	p14_control_right	control	1	967	176	TRUE	train	TRUE	left
784	785	trial	3	12	2	no	p4_test	right	p4_test_right	test	1	764	176	TRUE	train	TRUE	left
788	789	trial	3	13	0	yes	p14_test	left	p14_test_left	test	1	1093	176	TRUE	train	TRUE	left
792	793	trial	3	14	2	yes	a51_control	left	a51_control_left	control	3	NA	176	TRUE	train	TRUE	left
800	801	trial	3	15	2	no	a6_control	right	a6_control_right	control	1	753	176	TRUE	train	TRUE	left
804	805	trial	3	16	1	no	p50_control	right	p50_control_right	control	1	1519	176	TRUE	train	TRUE	left
808	809	trial	3	17	1	yes	p17_test	left	p17_test_left	test	1	950	176	TRUE	train	TRUE	left
812	813	trial	3	18	0	no	p50_control	right	p50_control_right	control	1	2423	176	TRUE	train	TRUE	left
816	817	trial	3	19	1	no	a18_control	right	a18_control_right	control	1	752	176	TRUE	train	TRUE	left
820	821	trial	3	20	1	no	a67_test	right	a67_test_right	test	1	526	176	TRUE	train	TRUE	left
824	825	trial	3	21	3	no	a6_test	right	a6_test_right	test	1	581	176	TRUE	train	TRUE	left
828	829	trial	3	22	0	yes	a67_test	left	a67_test_left	test	1	566	176	TRUE	train	TRUE	left
832	833	trial	3	23	1	yes	a18_control	left	a18_control_left	control	1	916	176	TRUE	train	TRUE	left
836	837	trial	3	24	1	yes	a51_test	left	a51_test_left	test	1	1322	176	TRUE	train	TRUE	left
840	841	trial	3	25	0	no	a5_control	right	a5_control_right	control	1	607	176	TRUE	train	TRUE	left
844	845	trial	3	26	2	yes	a5_test	left	a5_test_left	test	1	794	176	TRUE	train	TRUE	left
848	849	trial	3	27	1	yes	p29_test	left	p29_test_left	test	1	670	176	TRUE	train	TRUE	left
852	853	trial	3	28	3	yes	a6_control	left	a6_control_left	control	1	476	176	TRUE	train	TRUE	left
856	857	trial	3	29	1	no	p29_control	right	p29_control_right	control	1	583	176	TRUE	train	TRUE	left
860	861	trial	3	30	1	yes	p50_test	left	p50_test_left	test	1	835	176	TRUE	train	TRUE	left
864	865	trial	3	31	3	yes	a67_control	left	a67_control_left	control	1	631	176	TRUE	train	TRUE	left
868	869	trial	3	32	1	yes	a18_test	left	a18_test_left	test	1	769	176	TRUE	train	TRUE	left
872	873	trial	3	33	2	yes	p71_control	left	p71_control_left	control	1	1015	176	TRUE	train	TRUE	left
876	877	trial	3	34	1	no	a51_control	right	a51_control_right	control	1	2519	176	TRUE	train	TRUE	left
880	881	trial	3	35	0	no	p29_control	right	p29_control_right	control	1	762	176	TRUE	train	TRUE	left
884	885	trial	3	36	3	no	p4_test	right	p4_test_right	test	1	644	176	TRUE	train	TRUE	left
888	889	trial	3	37	1	no	a18_test	right	a18_test_right	test	1	2020	176	TRUE	train	TRUE	left
892	893	trial	3	38	2	yes	a67_control	left	a67_control_left	control	1	757	176	TRUE	train	TRUE	left
896	897	trial	3	39	3	no	p4_control	right	p4_control_right	control	1	651	176	TRUE	train	TRUE	left
900	901	trial	3	40	2	yes	a6_test	left	a6_test_left	test	1	610	176	TRUE	train	TRUE	left
904	905	trial	3	41	1	yes	p4_test	left	p4_test_left	test	1	544	176	TRUE	train	TRUE	left
908	909	trial	3	42	1	no	p14_control	right	p14_control_right	control	1	643	176	TRUE	train	TRUE	left
912	913	trial	3	43	0	no	a18_control	right	a18_control_right	control	1	750	176	TRUE	train	TRUE	left
916	917	trial	3	44	3	no	a51_test	right	a51_test_right	test	1	733	176	TRUE	train	TRUE	left
920	921	trial	3	45	2	no	p17_test	right	p17_test_right	test	1	911	176	TRUE	train	TRUE	left
924	925	trial	3	46	1	no	p4_control	right	p4_control_right	control	1	621	176	TRUE	train	TRUE	left
928	929	trial	3	47	0	yes	a5_control	left	a5_control_left	control	1	1300	176	TRUE	train	TRUE	left
932	933	trial	3	48	0	no	a67_test	right	a67_test_right	test	1	771	176	TRUE	train	TRUE	left
936	937	trial	3	49	0	yes	a6_control	left	a6_control_left	control	1	1100	176	TRUE	train	TRUE	left
940	941	trial	3	50	1	no	a51_test	right	a51_test_right	test	1	1202	176	TRUE	train	TRUE	left
944	945	trial	3	51	3	no	p50_test	right	p50_test_right	test	1	808	176	TRUE	train	TRUE	left
948	949	trial	3	52	0	yes	a5_test	left	a5_test_left	test	2	2083	176	TRUE	train	TRUE	left
954	955	trial	3	53	3	yes	a6_test	left	a6_test_left	test	1	1916	176	TRUE	train	TRUE	left
958	959	trial	3	54	2	yes	p29_control	left	p29_control_left	control	1	1225	176	TRUE	train	TRUE	left
962	963	trial	3	55	3	no	a5_test	right	a5_test_right	test	1	779	176	TRUE	train	TRUE	left
966	967	trial	3	56	0	yes	p50_control	left	p50_control_left	control	1	1275	176	FALSE	train	TRUE	left
971	972	trial	3	57	3	no	p17_control	right	p17_control_right	control	1	787	176	TRUE	train	TRUE	left
975	976	trial	3	58	2	yes	p4_control	left	p4_control_left	control	2	967	176	FALSE	train	TRUE	left
980	981	trial	3	59	3	no	p29_control	right	p29_control_right	control	1	796	176	TRUE	train	TRUE	left
984	985	trial	3	60	1	no	p14_test	right	p14_test_right	test	1	2175	176	TRUE	train	TRUE	left
988	989	trial	3	61	0	yes	a7_control	left	a7_control_left	control	1	1236	176	TRUE	train	TRUE	left
992	993	trial	3	62	3	yes	a7_test	left	a7_test_left	test	1	845	176	TRUE	train	TRUE	left
996	997	trial	3	63	0	yes	a18_control	left	a18_control_left	control	1	1301	176	TRUE	train	TRUE	left
1000	1001	trial	3	64	0	yes	p29_control	left	p29_control_left	control	1	1207	176	TRUE	train	TRUE	left
1004	1005	trial	3	65	3	yes	p17_test	left	p17_test_left	test	1	1130	176	TRUE	train	TRUE	left
1008	1009	trial	3	66	0	yes	p17_control	left	p17_control_left	control	1	713	176	TRUE	train	TRUE	left
1012	1013	trial	3	67	3	yes	a18_test	left	a18_test_left	test	1	506	176	TRUE	train	TRUE	left
1016	1017	trial	3	68	3	yes	p4_test	left	p4_test_left	test	1	509	176	TRUE	train	TRUE	left
1020	1021	trial	3	69	1	no	p29_test	right	p29_test_right	test	1	682	176	TRUE	train	TRUE	left
1024	1025	trial	3	70	0	yes	p14_control	left	p14_control_left	control	1	607	176	TRUE	train	TRUE	left
1028	1029	trial	3	71	2	no	a5_control	right	a5_control_right	control	1	926	176	TRUE	train	TRUE	left
1032	1033	trial	3	72	0	yes	p29_test	left	p29_test_left	test	1	643	176	TRUE	train	TRUE	left
1036	1037	trial	3	73	2	no	p14_control	right	p14_control_right	control	1	873	176	TRUE	train	TRUE	left
1040	1041	trial	3	74	3	yes	a5_control	left	a5_control_left	control	1	715	176	TRUE	train	TRUE	left
1044	1045	trial	3	75	2	yes	a6_control	left	a6_control_left	control	1	823	176	TRUE	train	TRUE	left
1048	1049	trial	3	76	1	yes	p17_control	left	p17_control_left	control	1	472	176	TRUE	train	TRUE	left
1052	1053	trial	3	77	0	yes	a7_test	left	a7_test_left	test	1	500	176	TRUE	train	TRUE	left
1056	1057	trial	3	78	1	yes	p50_control	left	p50_control_left	control	1	764	176	TRUE	train	TRUE	left
1060	1061	trial	3	79	1	yes	a5_control	left	a5_control_left	control	1	658	176	TRUE	train	TRUE	left
1064	1065	trial	3	80	1	yes	a7_control	left	a7_control_left	control	1	471	176	TRUE	train	TRUE	left
1068	1069	trial	3	81	0	yes	a51_control	left	a51_control_left	control	1	543	176	TRUE	train	TRUE	left
1072	1073	trial	3	82	2	no	a67_test	right	a67_test_right	test	1	939	176	TRUE	train	TRUE	left
1076	1077	trial	3	83	3	no	a18_test	right	a18_test_right	test	1	716	176	TRUE	train	TRUE	left
1080	1081	trial	3	84	3	no	p71_test	right	p71_test_right	test	1	955	176	TRUE	train	TRUE	left
1084	1085	trial	3	85	2	no	p50_control	right	p50_control_right	control	1	689	176	TRUE	train	TRUE	left
1088	1089	trial	3	86	2	no	a5_test	right	a5_test_right	test	1	820	176	TRUE	train	TRUE	left
1092	1093	trial	3	87	3	no	a7_control	right	a7_control_right	control	1	1721	176	TRUE	train	TRUE	left
1096	1097	trial	3	88	0	no	a5_test	right	a5_test_right	test	3	NA	176	TRUE	train	TRUE	left
1102	1103	trial	3	89	0	no	p17_test	right	p17_test_right	test	1	485	176	TRUE	train	TRUE	left
1106	1107	trial	3	90	2	no	p71_control	right	p71_control_right	control	1	663	176	TRUE	train	TRUE	left
1110	1111	trial	3	91	1	no	a6_test	right	a6_test_right	test	1	829	176	TRUE	train	TRUE	left
1114	1115	trial	3	92	0	no	a67_control	right	a67_control_right	control	1	461	176	TRUE	train	TRUE	left
1118	1119	trial	3	93	2	yes	p17_test	left	p17_test_left	test	1	551	176	TRUE	train	TRUE	left
1122	1123	trial	3	94	0	yes	p71_control	left	p71_control_left	control	1	776	176	TRUE	train	TRUE	left
1126	1127	trial	3	95	3	yes	p71_control	left	p71_control_left	control	1	631	176	TRUE	train	TRUE	left
12	13	trial	0	0	2	no	practice_test	right	practice_test_right	test	1	491	177	TRUE	practice	TRUE	left
16	17	trial	0	1	1	no	practice_control	right	practice_control_right	control	1	677	177	TRUE	practice	TRUE	left
20	21	trial	0	2	2	yes	practice_control	left	practice_control_left	control	1	672	177	TRUE	practice	TRUE	left
24	25	trial	0	3	0	no	practice_test	right	practice_test_right	test	1	1010	177	TRUE	practice	TRUE	left
28	29	trial	0	4	1	yes	practice_test	left	practice_test_left	test	1	661	177	TRUE	practice	TRUE	left
32	33	trial	0	5	2	no	practice_control	right	practice_control_right	control	1	972	177	TRUE	practice	TRUE	left
36	37	trial	0	6	1	yes	practice_control	left	practice_control_left	control	1	684	177	TRUE	practice	TRUE	left
40	41	trial	0	7	0	yes	practice_test	left	practice_test_left	test	1	562	177	TRUE	practice	TRUE	left
44	45	trial	0	8	0	yes	practice_control	left	practice_control_left	control	1	687	177	TRUE	practice	TRUE	left
48	49	trial	0	9	1	no	practice_test	right	practice_test_right	test	2	816	177	TRUE	practice	TRUE	left
55	56	trial	0	10	2	yes	practice_test	left	practice_test_left	test	1	799	177	TRUE	practice	TRUE	left
59	60	trial	0	11	0	no	practice_control	right	practice_control_right	control	1	880	177	TRUE	practice	TRUE	left
67	68	trial	1	0	0	yes	a65_control	left	a65_control_left	control	1	908	177	TRUE	assess	TRUE	left
71	72	trial	1	1	0	yes	a66_control	left	a66_control_left	control	1	764	177	TRUE	assess	TRUE	left
75	76	trial	1	2	1	yes	p33_control	left	p33_control_left	control	1	520	177	TRUE	assess	TRUE	left
79	80	trial	1	3	1	no	a66_test	right	a66_test_right	test	1	466	177	TRUE	assess	TRUE	left
83	84	trial	1	4	0	no	p26_control	right	p26_control_right	control	1	882	177	TRUE	assess	TRUE	left
87	88	trial	1	5	1	yes	p41_test	left	p41_test_left	test	1	576	177	TRUE	assess	TRUE	left
91	92	trial	1	6	1	yes	p3_control	left	p3_control_left	control	1	708	177	TRUE	assess	TRUE	left
95	96	trial	1	7	0	yes	a15_test	left	a15_test_left	test	1	567	177	TRUE	assess	TRUE	left
99	100	trial	1	8	1	no	p41_control	right	p41_control_right	control	1	453	177	TRUE	assess	TRUE	left
103	104	trial	1	9	0	no	a15_test	right	a15_test_right	test	1	621	177	TRUE	assess	TRUE	left
107	108	trial	1	10	1	no	p26_control	right	p26_control_right	control	1	590	177	TRUE	assess	TRUE	left
111	112	trial	1	11	0	yes	a66_test	left	a66_test_left	test	1	641	177	TRUE	assess	TRUE	left
115	116	trial	1	12	0	yes	p26_control	left	p26_control_left	control	1	495	177	TRUE	assess	TRUE	left
119	120	trial	1	13	0	yes	p33_test	left	p33_test_left	test	1	470	177	TRUE	assess	TRUE	left
123	124	trial	1	14	0	no	p33_control	right	p33_control_right	control	1	858	177	TRUE	assess	TRUE	left
127	128	trial	1	15	1	no	p33_control	right	p33_control_right	control	1	659	177	TRUE	assess	TRUE	left
131	132	trial	1	16	1	yes	p33_test	left	p33_test_left	test	1	2146	177	TRUE	assess	TRUE	left
135	136	trial	1	17	0	no	p3_test	right	p3_test_right	test	1	1115	177	TRUE	assess	TRUE	left
139	140	trial	1	18	0	no	p26_test	right	p26_test_right	test	1	1274	177	TRUE	assess	TRUE	left
143	144	trial	1	19	1	no	a15_control	right	a15_control_right	control	1	978	177	TRUE	assess	TRUE	left
147	148	trial	1	20	0	no	a65_control	right	a65_control_right	control	1	697	177	TRUE	assess	TRUE	left
151	152	trial	1	21	0	yes	p41_test	left	p41_test_left	test	1	2786	177	TRUE	assess	TRUE	left
155	156	trial	1	22	1	no	p41_test	right	p41_test_right	test	1	1175	177	TRUE	assess	TRUE	left
159	160	trial	1	23	0	no	a15_control	right	a15_control_right	control	1	669	177	TRUE	assess	TRUE	left
163	164	trial	1	24	1	yes	a17_test	left	a17_test_left	test	2	1330	177	TRUE	assess	TRUE	left
169	170	trial	1	25	0	yes	a17_control	left	a17_control_left	control	1	1081	177	TRUE	assess	TRUE	left
173	174	trial	1	26	1	yes	p3_test	left	p3_test_left	test	1	1310	177	TRUE	assess	TRUE	left
177	178	trial	1	27	1	no	p33_test	right	p33_test_right	test	1	1318	177	TRUE	assess	TRUE	left
181	182	trial	1	28	1	no	a65_control	right	a65_control_right	control	1	1089	177	TRUE	assess	TRUE	left
185	186	trial	1	29	1	yes	p26_test	left	p26_test_left	test	1	1204	177	TRUE	assess	TRUE	left
189	190	trial	1	30	0	yes	p26_test	left	p26_test_left	test	1	1000	177	TRUE	assess	TRUE	left
193	194	trial	1	31	0	no	a17_test	right	a17_test_right	test	1	885	177	TRUE	assess	TRUE	left
197	198	trial	1	32	0	no	p41_control	right	p41_control_right	control	1	754	177	TRUE	assess	TRUE	left
201	202	trial	1	33	0	yes	a65_test	left	a65_test_left	test	1	1270	177	TRUE	assess	TRUE	left
205	206	trial	1	34	1	no	a17_control	right	a17_control_right	control	1	662	177	TRUE	assess	TRUE	left
209	210	trial	1	35	0	no	a17_control	right	a17_control_right	control	1	500	177	TRUE	assess	TRUE	left
213	214	trial	1	36	0	yes	p3_control	left	p3_control_left	control	1	608	177	TRUE	assess	TRUE	left
217	218	trial	1	37	0	no	p41_test	right	p41_test_right	test	1	632	177	TRUE	assess	TRUE	left
221	222	trial	1	38	1	yes	a65_control	left	a65_control_left	control	1	603	177	TRUE	assess	TRUE	left
225	226	trial	1	39	1	yes	a15_test	left	a15_test_left	test	1	663	177	TRUE	assess	TRUE	left
229	230	trial	1	40	1	no	p3_control	right	p3_control_right	control	1	747	177	TRUE	assess	TRUE	left
233	234	trial	1	41	0	no	a65_test	right	a65_test_right	test	1	853	177	TRUE	assess	TRUE	left
237	238	trial	1	42	0	no	a66_test	right	a66_test_right	test	1	606	177	TRUE	assess	TRUE	left
241	242	trial	1	43	0	no	p33_test	right	p33_test_right	test	1	825	177	TRUE	assess	TRUE	left
245	246	trial	1	44	0	yes	a17_test	left	a17_test_left	test	1	777	177	TRUE	assess	TRUE	left
249	250	trial	1	45	1	no	a66_control	right	a66_control_right	control	1	1062	177	TRUE	assess	TRUE	left
253	254	trial	1	46	1	no	a15_test	right	a15_test_right	test	1	682	177	TRUE	assess	TRUE	left
257	258	trial	1	47	1	no	p3_test	right	p3_test_right	test	1	946	177	TRUE	assess	TRUE	left
261	262	trial	1	48	1	yes	a17_control	left	a17_control_left	control	1	740	177	TRUE	assess	TRUE	left
265	266	trial	1	49	1	yes	p41_control	left	p41_control_left	control	1	751	177	TRUE	assess	TRUE	left
269	270	trial	1	50	0	yes	p3_test	left	p3_test_left	test	1	723	177	TRUE	assess	TRUE	left
273	274	trial	1	51	1	yes	a66_test	left	a66_test_left	test	1	1131	177	TRUE	assess	TRUE	left
277	278	trial	1	52	0	yes	p41_control	left	p41_control_left	control	1	744	177	TRUE	assess	TRUE	left
281	282	trial	1	53	0	no	a66_control	right	a66_control_right	control	1	800	177	TRUE	assess	TRUE	left
285	286	trial	1	54	1	yes	a65_test	left	a65_test_left	test	1	477	177	TRUE	assess	TRUE	left
289	290	trial	1	55	1	yes	a66_control	left	a66_control_left	control	1	828	177	TRUE	assess	TRUE	left
293	294	trial	1	56	0	yes	p33_control	left	p33_control_left	control	1	598	177	TRUE	assess	TRUE	left
297	298	trial	1	57	0	no	p3_control	right	p3_control_right	control	1	709	177	TRUE	assess	TRUE	left
301	302	trial	1	58	0	yes	a15_control	left	a15_control_left	control	1	581	177	TRUE	assess	TRUE	left
305	306	trial	1	59	1	no	a65_test	right	a65_test_right	test	1	911	177	TRUE	assess	TRUE	left
309	310	trial	1	60	1	no	p26_test	right	p26_test_right	test	1	713	177	TRUE	assess	TRUE	left
313	314	trial	1	61	1	yes	a15_control	left	a15_control_left	control	1	804	177	TRUE	assess	TRUE	left
317	318	trial	1	62	1	yes	p26_control	left	p26_control_left	control	1	663	177	TRUE	assess	TRUE	left
321	322	trial	1	63	1	no	a17_test	right	a17_test_right	test	1	903	177	TRUE	assess	TRUE	left
329	330	trial	2	0	0	yes	p70_control	left	p70_control_left	control	1	2150	177	TRUE	train	TRUE	left
333	334	trial	2	1	1	no	p18_test	right	p18_test_right	test	3	NA	177	TRUE	train	TRUE	left
339	340	trial	2	2	3	no	a63_test	right	a63_test_right	test	1	1682	177	TRUE	train	TRUE	left
343	344	trial	2	3	2	yes	p50_test	left	p50_test_left	test	1	779	177	TRUE	train	TRUE	left
347	348	trial	2	4	2	no	p18_test	right	p18_test_right	test	1	2382	177	TRUE	train	TRUE	left
351	352	trial	2	5	0	no	p50_control	right	p50_control_right	control	1	1175	177	TRUE	train	TRUE	left
355	356	trial	2	6	2	no	a35_test	right	a35_test_right	test	1	946	177	TRUE	train	TRUE	left
359	360	trial	2	7	2	no	p18_control	right	p18_control_right	control	1	551	177	TRUE	train	TRUE	left
363	364	trial	2	8	0	yes	a33_test	left	a33_test_left	test	1	611	177	TRUE	train	TRUE	left
367	368	trial	2	9	0	yes	p70_test	left	p70_test_left	test	1	780	177	TRUE	train	TRUE	left
371	372	trial	2	10	0	yes	p9_control	left	p9_control_left	control	1	977	177	TRUE	train	TRUE	left
375	376	trial	2	11	3	no	a35_test	right	a35_test_right	test	1	848	177	TRUE	train	TRUE	left
379	380	trial	2	12	0	no	a70_control	right	a70_control_right	control	1	1440	177	TRUE	train	TRUE	left
383	384	trial	2	13	3	no	p70_control	right	p70_control_right	control	1	2377	177	TRUE	train	TRUE	left
387	388	trial	2	14	0	yes	a33_control	left	a33_control_left	control	3	NA	177	TRUE	train	TRUE	left
393	394	trial	2	15	0	no	a28_control	right	a28_control_right	control	1	964	177	TRUE	train	TRUE	left
397	398	trial	2	16	3	no	p9_test	right	p9_test_right	test	1	943	177	TRUE	train	TRUE	left
401	402	trial	2	17	3	no	a35_control	right	a35_control_right	control	1	1113	177	TRUE	train	TRUE	left
405	406	trial	2	18	0	no	a35_control	right	a35_control_right	control	1	884	177	TRUE	train	TRUE	left
409	410	trial	2	19	1	yes	p13_control	left	p13_control_left	control	1	796	177	TRUE	train	TRUE	left
413	414	trial	2	20	0	no	p2_test	right	p2_test_right	test	1	779	177	TRUE	train	TRUE	left
417	418	trial	2	21	0	yes	a63_control	left	a63_control_left	control	1	821	177	TRUE	train	TRUE	left
421	422	trial	2	22	1	no	p2_test	right	p2_test_right	test	1	765	177	TRUE	train	TRUE	left
425	426	trial	2	23	1	no	a33_control	right	a33_control_right	control	1	624	177	TRUE	train	TRUE	left
429	430	trial	2	24	3	no	p2_test	right	p2_test_right	test	1	738	177	TRUE	train	TRUE	left
433	434	trial	2	25	0	yes	a20_control	left	a20_control_left	control	1	711	177	TRUE	train	TRUE	left
437	438	trial	2	26	2	yes	p70_test	left	p70_test_left	test	1	798	177	TRUE	train	TRUE	left
441	442	trial	2	27	2	yes	a28_control	left	a28_control_left	control	1	505	177	TRUE	train	TRUE	left
445	446	trial	2	28	0	yes	a35_control	left	a35_control_left	control	1	766	177	TRUE	train	TRUE	left
449	450	trial	2	29	1	yes	a28_test	left	a28_test_left	test	1	638	177	TRUE	train	TRUE	left
453	454	trial	2	30	1	no	p70_test	right	p70_test_right	test	1	1038	177	TRUE	train	TRUE	left
457	458	trial	2	31	1	no	a63_control	right	a63_control_right	control	1	758	177	TRUE	train	TRUE	left
461	462	trial	2	32	3	yes	p9_test	left	p9_test_left	test	1	521	177	TRUE	train	TRUE	left
465	466	trial	2	33	2	no	p50_control	right	p50_control_right	control	1	646	177	TRUE	train	TRUE	left
469	470	trial	2	34	0	yes	p18_control	left	p18_control_left	control	1	772	177	TRUE	train	TRUE	left
473	474	trial	2	35	3	no	a70_test	right	a70_test_right	test	1	677	177	TRUE	train	TRUE	left
477	478	trial	2	36	2	yes	p18_control	left	p18_control_left	control	1	656	177	TRUE	train	TRUE	left
481	482	trial	2	37	3	yes	a70_control	left	a70_control_left	control	1	783	177	TRUE	train	TRUE	left
485	486	trial	2	38	2	no	p70_control	right	p70_control_right	control	1	680	177	TRUE	train	TRUE	left
489	490	trial	2	39	3	yes	a20_test	left	a20_test_left	test	1	1444	177	TRUE	train	TRUE	left
493	494	trial	2	40	1	yes	a20_control	left	a20_control_left	control	1	649	177	TRUE	train	TRUE	left
497	498	trial	2	41	3	yes	a28_control	left	a28_control_left	control	1	935	177	TRUE	train	TRUE	left
501	502	trial	2	42	2	no	p9_control	right	p9_control_right	control	1	775	177	TRUE	train	TRUE	left
505	506	trial	2	43	0	no	p2_control	right	p2_control_right	control	1	708	177	TRUE	train	TRUE	left
509	510	trial	2	44	3	no	p50_test	right	p50_test_right	test	1	843	177	TRUE	train	TRUE	left
513	514	trial	2	45	2	no	a28_control	right	a28_control_right	control	1	772	177	TRUE	train	TRUE	left
517	518	trial	2	46	0	yes	p18_test	left	p18_test_left	test	1	1014	177	TRUE	train	TRUE	left
521	522	trial	2	47	2	yes	a63_control	left	a63_control_left	control	1	637	177	TRUE	train	TRUE	left
525	526	trial	2	48	0	yes	a20_test	left	a20_test_left	test	1	774	177	TRUE	train	TRUE	left
529	530	trial	2	49	3	yes	a70_test	left	a70_test_left	test	1	822	177	TRUE	train	TRUE	left
533	534	trial	2	50	0	yes	p50_control	left	p50_control_left	control	1	831	177	TRUE	train	TRUE	left
537	538	trial	2	51	3	yes	a33_test	left	a33_test_left	test	1	1423	177	TRUE	train	TRUE	left
541	542	trial	2	52	2	no	a33_test	right	a33_test_right	test	1	822	177	TRUE	train	TRUE	left
545	546	trial	2	53	2	yes	a33_control	left	a33_control_left	control	1	706	177	TRUE	train	TRUE	left
549	550	trial	2	54	3	yes	p70_test	left	p70_test_left	test	1	700	177	TRUE	train	TRUE	left
553	554	trial	2	55	2	yes	p9_control	left	p9_control_left	control	1	438	177	TRUE	train	TRUE	left
557	558	trial	2	56	2	yes	p13_test	left	p13_test_left	test	1	582	177	TRUE	train	TRUE	left
561	562	trial	2	57	1	no	a20_control	right	a20_control_right	control	1	1027	177	TRUE	train	TRUE	left
565	566	trial	2	58	2	no	a70_test	right	a70_test_right	test	1	815	177	TRUE	train	TRUE	left
569	570	trial	2	59	3	no	p18_control	right	p18_control_right	control	1	753	177	TRUE	train	TRUE	left
573	574	trial	2	60	3	no	p50_control	right	p50_control_right	control	1	1089	177	TRUE	train	TRUE	left
577	578	trial	2	61	1	yes	p2_control	left	p2_control_left	control	1	612	177	TRUE	train	TRUE	left
581	582	trial	2	62	2	no	p9_test	right	p9_test_right	test	1	545	177	TRUE	train	TRUE	left
585	586	trial	2	63	0	no	a33_test	right	a33_test_right	test	1	650	177	TRUE	train	TRUE	left
589	590	trial	2	64	1	yes	p50_test	left	p50_test_left	test	1	666	177	TRUE	train	TRUE	left
593	594	trial	2	65	2	yes	p2_control	left	p2_control_left	control	1	692	177	TRUE	train	TRUE	left
597	598	trial	2	66	0	no	p50_test	right	p50_test_right	test	1	805	177	TRUE	train	TRUE	left
601	602	trial	2	67	2	yes	a33_test	left	a33_test_left	test	1	729	177	TRUE	train	TRUE	left
605	606	trial	2	68	1	yes	p18_control	left	p18_control_left	control	1	998	177	TRUE	train	TRUE	left
609	610	trial	2	69	1	yes	a63_test	left	a63_test_left	test	1	793	177	TRUE	train	TRUE	left
613	614	trial	2	70	1	no	p13_test	right	p13_test_right	test	1	1124	177	TRUE	train	TRUE	left
617	618	trial	2	71	0	yes	a70_test	left	a70_test_left	test	1	942	177	TRUE	train	TRUE	left
621	622	trial	2	72	1	no	p2_control	right	p2_control_right	control	1	2550	177	TRUE	train	TRUE	left
625	626	trial	2	73	1	no	p13_control	right	p13_control_right	control	1	815	177	TRUE	train	TRUE	left
629	630	trial	2	74	2	no	a63_test	right	a63_test_right	test	1	805	177	TRUE	train	TRUE	left
633	634	trial	2	75	1	yes	p2_test	left	p2_test_left	test	1	555	177	TRUE	train	TRUE	left
637	638	trial	2	76	1	no	a70_control	right	a70_control_right	control	1	760	177	TRUE	train	TRUE	left
641	642	trial	2	77	2	no	p2_test	right	p2_test_right	test	1	575	177	TRUE	train	TRUE	left
645	646	trial	2	78	2	yes	p70_control	left	p70_control_left	control	1	702	177	TRUE	train	TRUE	left
649	650	trial	2	79	3	no	a28_test	right	a28_test_right	test	1	1924	177	TRUE	train	TRUE	left
653	654	trial	2	80	1	yes	a70_control	left	a70_control_left	control	1	1377	177	TRUE	train	TRUE	left
657	658	trial	2	81	3	yes	p9_control	left	p9_control_left	control	1	749	177	TRUE	train	TRUE	left
661	662	trial	2	82	1	no	a35_test	right	a35_test_right	test	1	833	177	TRUE	train	TRUE	left
665	666	trial	2	83	3	yes	p13_control	left	p13_control_left	control	1	526	177	TRUE	train	TRUE	left
669	670	trial	2	84	3	yes	a35_test	left	a35_test_left	test	1	673	177	TRUE	train	TRUE	left
673	674	trial	2	85	2	yes	a35_control	left	a35_control_left	control	1	488	177	TRUE	train	TRUE	left
