from_seq	to_seq	event	block	trial	patt	reps	phor	stim	keep	thor	image	pdir	response	rt	set_id	type	placebo
12	13	trial	0	0	no	0	left	practice	no	right	practice_right	up	1	1768	167	practice	TRUE
15	16	trial	0	1	yes	0	left	practice	yes	left	practice_left	down	1	1354	167	practice	TRUE
18	19	trial	0	2	no	0	right	practice	yes	left	practice_left	down	1	978	167	practice	TRUE
21	22	trial	0	3	yes	0	left	practice	no	left	practice_left	up	1	568	167	practice	TRUE
24	25	trial	0	4	no	0	right	practice	no	left	practice_left	down	2	2036	167	practice	TRUE
28	29	trial	0	5	yes	0	right	practice	yes	right	practice_right	up	1	893	167	practice	TRUE
31	32	trial	0	6	no	0	left	practice	yes	right	practice_right	down	1	965	167	practice	TRUE
34	35	trial	0	7	yes	0	right	practice	no	right	practice_right	up	1	563	167	practice	TRUE
41	42	trial	1	0	yes	0	left	a41	no	left	a41_left	down	1	1062	167	assess	TRUE
44	45	trial	1	1	no	0	left	p9	yes	right	p9_right	down	1	952	167	assess	TRUE
47	48	trial	1	2	no	0	right	a41	yes	left	a41_left	down	1	616	167	assess	TRUE
50	51	trial	1	3	yes	1	left	a41	no	left	a41_left	down	1	739	167	assess	TRUE
53	54	trial	1	4	yes	1	right	a41	yes	right	a41_right	up	1	513	167	assess	TRUE
56	57	trial	1	5	no	0	left	p61	yes	right	p61_right	up	1	600	167	assess	TRUE
59	60	trial	1	6	yes	1	left	p9	no	left	p9_left	down	2	853	167	assess	TRUE
63	64	trial	1	7	yes	1	left	p24	yes	left	p24_left	down	1	757	167	assess	TRUE
66	67	trial	1	8	no	0	right	a29	yes	left	a29_left	down	1	636	167	assess	TRUE
69	70	trial	1	9	yes	0	left	p72	no	left	p72_left	down	1	594	167	assess	TRUE
72	73	trial	1	10	no	1	right	p72	yes	left	p72_left	up	1	474	167	assess	TRUE
75	76	trial	1	11	no	1	left	p24	no	right	p24_right	up	2	536	167	assess	TRUE
79	80	trial	1	12	no	0	left	p72	yes	right	p72_right	down	1	786	167	assess	TRUE
82	83	trial	1	13	yes	0	left	a20	yes	left	a20_left	down	1	644	167	assess	TRUE
85	86	trial	1	14	yes	0	right	p24	yes	right	p24_right	up	1	630	167	assess	TRUE
88	89	trial	1	15	yes	1	right	a41	no	right	a41_right	down	1	665	167	assess	TRUE
91	92	trial	1	16	yes	0	right	a20	no	right	a20_right	up	1	433	167	assess	TRUE
94	95	trial	1	17	yes	1	right	a20	yes	right	a20_right	up	2	349	167	assess	TRUE
98	99	trial	1	18	yes	0	right	p9	yes	right	p9_right	down	1	710	167	assess	TRUE
101	102	trial	1	19	no	1	right	a42	yes	left	a42_left	down	1	607	167	assess	TRUE
104	105	trial	1	20	no	1	left	p72	yes	right	p72_right	down	1	564	167	assess	TRUE
107	108	trial	1	21	yes	1	right	a42	yes	right	a42_right	up	1	352	167	assess	TRUE
110	111	trial	1	22	no	0	left	p61	no	right	p61_right	up	1	598	167	assess	TRUE
113	114	trial	1	23	no	1	right	p24	no	left	p24_left	down	1	484	167	assess	TRUE
116	117	trial	1	24	yes	0	right	p72	no	right	p72_right	down	1	641	167	assess	TRUE
119	120	trial	1	25	yes	1	left	p72	no	left	p72_left	down	1	591	167	assess	TRUE
122	123	trial	1	26	no	0	left	a29	no	right	a29_right	up	1	570	167	assess	TRUE
125	126	trial	1	27	no	1	right	p61	no	left	p61_left	down	1	534	167	assess	TRUE
128	129	trial	1	28	no	1	right	p9	no	left	p9_left	down	1	527	167	assess	TRUE
131	132	trial	1	29	yes	1	right	p72	no	right	p72_right	up	1	599	167	assess	TRUE
134	135	trial	1	30	no	0	left	a42	yes	right	a42_right	up	1	587	167	assess	TRUE
137	138	trial	1	31	yes	0	right	a42	yes	right	a42_right	up	1	503	167	assess	TRUE
140	141	trial	1	32	yes	1	right	a20	no	right	a20_right	up	1	498	167	assess	TRUE
143	144	trial	1	33	no	0	right	a41	no	left	a41_left	up	1	520	167	assess	TRUE
146	147	trial	1	34	yes	0	right	p61	yes	right	p61_right	up	1	531	167	assess	TRUE
149	150	trial	1	35	yes	0	left	a20	no	left	a20_left	down	1	490	167	assess	TRUE
152	153	trial	1	36	yes	0	right	a42	no	right	a42_right	up	1	475	167	assess	TRUE
155	156	trial	1	37	yes	0	right	a41	yes	right	a41_right	up	1	339	167	assess	TRUE
158	159	trial	1	38	no	1	right	a20	yes	left	a20_left	down	1	409	167	assess	TRUE
161	162	trial	1	39	yes	1	left	a20	yes	left	a20_left	up	1	459	167	assess	TRUE
164	165	trial	1	40	yes	0	left	p24	no	left	p24_left	down	1	506	167	assess	TRUE
167	168	trial	1	41	yes	0	left	a41	yes	left	a41_left	down	1	594	167	assess	TRUE
170	171	trial	1	42	yes	0	right	p9	no	right	p9_right	up	1	562	167	assess	TRUE
173	174	trial	1	43	yes	0	right	p61	no	right	p61_right	up	1	503	167	assess	TRUE
176	177	trial	1	44	yes	0	left	a42	yes	left	a42_left	up	1	581	167	assess	TRUE
179	180	trial	1	45	no	1	left	p24	yes	right	p24_right	up	1	425	167	assess	TRUE
182	183	trial	1	46	no	1	left	a41	no	right	a41_right	up	1	582	167	assess	TRUE
185	186	trial	1	47	no	1	left	a20	yes	right	a20_right	down	1	374	167	assess	TRUE
188	189	trial	1	48	no	0	right	p24	yes	left	p24_left	down	1	542	167	assess	TRUE
191	192	trial	1	49	yes	1	right	p9	yes	right	p9_right	up	1	526	167	assess	TRUE
194	195	trial	1	50	yes	1	right	p9	no	right	p9_right	down	1	517	167	assess	TRUE
197	198	trial	1	51	yes	1	left	a29	yes	left	a29_left	up	1	418	167	assess	TRUE
200	201	trial	1	52	yes	1	right	p24	yes	right	p24_right	up	1	450	167	assess	TRUE
203	204	trial	1	53	no	1	right	p72	no	left	p72_left	up	1	490	167	assess	TRUE
206	207	trial	1	54	no	0	right	a20	yes	left	a20_left	up	2	330	167	assess	TRUE
210	211	trial	1	55	yes	0	left	a29	yes	left	a29_left	down	1	593	167	assess	TRUE
213	214	trial	1	56	yes	0	right	a41	no	right	a41_right	up	1	654	167	assess	TRUE
216	217	trial	1	57	no	0	left	p24	yes	right	p24_right	down	1	406	167	assess	TRUE
219	220	trial	1	58	no	1	left	a29	no	right	a29_right	up	1	587	167	assess	TRUE
222	223	trial	1	59	yes	0	left	p72	yes	left	p72_left	up	1	417	167	assess	TRUE
225	226	trial	1	60	no	1	left	a42	yes	right	a42_right	up	1	448	167	assess	TRUE
228	229	trial	1	61	no	1	left	a20	no	right	a20_right	down	1	675	167	assess	TRUE
231	232	trial	1	62	no	1	right	p61	yes	left	p61_left	down	1	490	167	assess	TRUE
234	235	trial	1	63	no	1	right	a41	no	left	a41_left	up	1	540	167	assess	TRUE
241	242	trial	2	0	no	1	left	a41	yes	right	a41_right	up	1	474	167	assess	TRUE
244	245	trial	2	1	yes	1	left	p72	yes	left	p72_left	down	1	537	167	assess	TRUE
247	248	trial	2	2	yes	0	right	a20	yes	right	a20_right	up	1	444	167	assess	TRUE
250	251	trial	2	3	no	1	right	a41	yes	left	a41_left	down	1	397	167	assess	TRUE
253	254	trial	2	4	yes	1	left	a41	yes	left	a41_left	down	1	662	167	assess	TRUE
256	257	trial	2	5	yes	1	right	p24	no	right	p24_right	up	1	423	167	assess	TRUE
259	260	trial	2	6	no	0	right	a20	no	left	a20_left	up	1	534	167	assess	TRUE
262	263	trial	2	7	yes	1	left	p9	yes	left	p9_left	down	1	343	167	assess	TRUE
265	266	trial	2	8	no	1	left	p61	yes	right	p61_right	up	1	536	167	assess	TRUE
268	269	trial	2	9	no	0	right	p9	yes	left	p9_left	down	1	303	167	assess	TRUE
271	272	trial	2	10	yes	0	left	p9	no	left	p9_left	down	1	545	167	assess	TRUE
274	275	trial	2	11	no	1	right	a20	no	left	a20_left	down	1	565	167	assess	TRUE
277	278	trial	2	12	no	1	left	a42	no	right	a42_right	up	1	582	167	assess	TRUE
280	281	trial	2	13	yes	0	right	a29	yes	right	a29_right	up	1	530	167	assess	TRUE
283	284	trial	2	14	no	1	right	p9	yes	left	p9_left	down	1	535	167	assess	TRUE
286	287	trial	2	15	no	0	left	a41	no	right	a41_right	up	1	478	167	assess	TRUE
289	290	trial	2	16	yes	0	left	p9	yes	left	p9_left	down	1	686	167	assess	TRUE
292	293	trial	2	17	no	0	left	a42	no	right	a42_right	up	1	627	167	assess	TRUE
295	296	trial	2	18	no	1	left	p61	no	right	p61_right	down	1	518	167	assess	TRUE
298	299	trial	2	19	no	0	right	p61	no	left	p61_left	down	1	489	167	assess	TRUE
301	302	trial	2	20	no	0	right	a29	no	left	a29_left	up	1	602	167	assess	TRUE
304	305	trial	2	21	no	1	right	p24	yes	left	p24_left	down	1	467	167	assess	TRUE
307	308	trial	2	22	no	1	right	a42	no	left	a42_left	down	1	490	167	assess	TRUE
310	311	trial	2	23	yes	0	right	p72	yes	right	p72_right	up	1	366	167	assess	TRUE
313	314	trial	2	24	yes	0	left	p24	yes	left	p24_left	up	2	392	167	assess	TRUE
317	318	trial	2	25	no	0	right	a42	yes	left	a42_left	up	1	500	167	assess	TRUE
320	321	trial	2	26	no	1	left	p72	no	right	p72_right	down	1	556	167	assess	TRUE
323	324	trial	2	27	no	0	left	p24	no	right	p24_right	down	1	563	167	assess	TRUE
326	327	trial	2	28	yes	1	left	p61	yes	left	p61_left	down	1	486	167	assess	TRUE
329	330	trial	2	29	yes	1	left	p24	no	left	p24_left	up	1	549	167	assess	TRUE
332	333	trial	2	30	no	0	left	p9	no	right	p9_right	up	1	514	167	assess	TRUE
335	336	trial	2	31	yes	1	right	p61	yes	right	p61_right	down	1	467	167	assess	TRUE
338	339	trial	2	32	no	1	left	a29	yes	right	a29_right	down	1	412	167	assess	TRUE
341	342	trial	2	33	yes	1	right	p61	no	right	p61_right	up	1	642	167	assess	TRUE
344	345	trial	2	34	yes	1	left	a42	yes	left	a42_left	down	1	444	167	assess	TRUE
347	348	trial	2	35	yes	0	right	a29	no	right	a29_right	up	1	430	167	assess	TRUE
350	351	trial	2	36	yes	1	right	a29	no	right	a29_right	up	1	657	167	assess	TRUE
353	354	trial	2	37	no	0	left	a29	yes	right	a29_right	up	2	383	167	assess	TRUE
357	358	trial	2	38	no	0	left	a20	yes	right	a20_right	down	1	558	167	assess	TRUE
360	361	trial	2	39	yes	0	left	a42	no	left	a42_left	up	1	782	167	assess	TRUE
363	364	trial	2	40	no	1	right	a29	no	left	a29_left	down	1	762	167	assess	TRUE
366	367	trial	2	41	no	0	right	a42	no	left	a42_left	down	1	545	167	assess	TRUE
369	370	trial	2	42	yes	0	left	p61	no	left	p61_left	down	1	669	167	assess	TRUE
372	373	trial	2	43	yes	0	right	p24	no	right	p24_right	down	1	615	167	assess	TRUE
375	376	trial	2	44	no	1	left	p9	yes	right	p9_right	down	1	562	167	assess	TRUE
378	379	trial	2	45	no	0	right	p72	no	left	p72_left	up	1	592	167	assess	TRUE
381	382	trial	2	46	no	0	right	p61	yes	left	p61_left	up	1	430	167	assess	TRUE
384	385	trial	2	47	yes	0	left	a29	no	left	a29_left	down	1	411	167	assess	TRUE
387	388	trial	2	48	no	0	left	a41	yes	right	a41_right	down	1	393	167	assess	TRUE
390	391	trial	2	49	no	0	right	p72	yes	left	p72_left	up	1	374	167	assess	TRUE
393	394	trial	2	50	no	1	left	p9	no	right	p9_right	down	1	502	167	assess	TRUE
396	397	trial	2	51	yes	1	left	a29	no	left	a29_left	up	1	532	167	assess	TRUE
399	400	trial	2	52	yes	1	right	a42	no	right	a42_right	down	1	490	167	assess	TRUE
402	403	trial	2	53	yes	1	left	a20	no	left	a20_left	up	1	577	167	assess	TRUE
405	406	trial	2	54	no	0	left	a20	no	right	a20_right	down	1	472	167	assess	TRUE
408	409	trial	2	55	yes	1	right	p72	yes	right	p72_right	up	1	345	167	assess	TRUE
411	412	trial	2	56	no	0	right	p24	no	left	p24_left	down	2	457	167	assess	TRUE
415	416	trial	2	57	yes	1	left	a42	no	left	a42_left	up	1	762	167	assess	TRUE
418	419	trial	2	58	yes	1	left	p61	no	left	p61_left	down	1	516	167	assess	TRUE
421	422	trial	2	59	no	0	left	p72	no	right	p72_right	up	1	675	167	assess	TRUE
424	425	trial	2	60	no	0	right	p9	no	left	p9_left	up	1	604	167	assess	TRUE
427	428	trial	2	61	no	1	right	a29	yes	left	a29_left	down	1	456	167	assess	TRUE
430	431	trial	2	62	yes	0	left	p61	yes	left	p61_left	down	1	426	167	assess	TRUE
433	434	trial	2	63	yes	1	right	a29	yes	right	a29_right	up	1	405	167	assess	TRUE
12	13	trial	0	0	yes	0	right	practice	no	right	practice_right	up	1	762	169	practice	TRUE
15	16	trial	0	1	yes	0	right	practice	yes	right	practice_right	down	1	667	169	practice	TRUE
18	19	trial	0	2	no	0	right	practice	yes	left	practice_left	down	1	497	169	practice	TRUE
21	22	trial	0	3	no	0	left	practice	yes	right	practice_right	down	1	545	169	practice	TRUE
24	25	trial	0	4	yes	0	left	practice	no	left	practice_left	down	1	504	169	practice	TRUE
27	28	trial	0	5	yes	0	left	practice	yes	left	practice_left	up	1	591	169	practice	TRUE
30	31	trial	0	6	no	0	left	practice	no	right	practice_right	up	1	669	169	practice	TRUE
33	34	trial	0	7	no	0	right	practice	no	left	practice_left	up	1	718	169	practice	TRUE
40	41	trial	1	0	no	0	left	p43	no	right	p43_right	up	1	607	169	assess	TRUE
43	44	trial	1	1	no	1	left	p36	yes	right	p36_right	up	1	430	169	assess	TRUE
46	47	trial	1	2	yes	1	left	a38	yes	left	a38_left	down	1	608	169	assess	TRUE
49	50	trial	1	3	yes	0	left	p43	no	left	p43_left	down	1	898	169	assess	TRUE
52	53	trial	1	4	no	0	right	p36	no	left	p36_left	up	1	645	169	assess	TRUE
55	56	trial	1	5	yes	1	right	p56	no	right	p56_right	up	1	633	169	assess	TRUE
58	59	trial	1	6	no	0	left	p47	yes	right	p47_right	down	1	526	169	assess	TRUE
61	62	trial	1	7	no	1	left	p43	no	right	p43_right	up	1	597	169	assess	TRUE
64	65	trial	1	8	no	0	left	p56	no	right	p56_right	up	1	604	169	assess	TRUE
67	68	trial	1	9	no	0	left	a36	no	right	a36_right	down	1	504	169	assess	TRUE
70	71	trial	1	10	no	1	right	p47	no	left	p47_left	up	1	572	169	assess	TRUE
73	74	trial	1	11	no	1	left	p56	yes	right	p56_right	down	1	513	169	assess	TRUE
76	77	trial	1	12	yes	0	left	a52	yes	left	a52_left	up	1	429	169	assess	TRUE
79	80	trial	1	13	no	0	left	a38	yes	right	a38_right	down	1	477	169	assess	TRUE
82	83	trial	1	14	no	0	right	p36	yes	left	p36_left	down	2	651	169	assess	TRUE
86	87	trial	1	15	no	1	right	a52	yes	left	a52_left	down	1	532	169	assess	TRUE
89	90	trial	1	16	yes	0	right	p43	no	right	p43_right	down	1	508	169	assess	TRUE
92	93	trial	1	17	no	0	left	p56	yes	right	p56_right	up	1	544	169	assess	TRUE
95	96	trial	1	18	no	1	right	a36	no	left	a36_left	down	1	514	169	assess	TRUE
98	99	trial	1	19	no	1	right	a36	yes	left	a36_left	down	1	538	169	assess	TRUE
101	102	trial	1	20	no	1	left	a38	yes	right	a38_right	up	1	735	169	assess	TRUE
104	105	trial	1	21	no	1	left	a52	no	right	a52_right	up	1	643	169	assess	TRUE
107	108	trial	1	22	no	0	right	a24	yes	left	a24_left	up	1	618	169	assess	TRUE
110	111	trial	1	23	yes	0	right	p36	yes	right	p36_right	down	1	461	169	assess	TRUE
113	114	trial	1	24	no	1	right	p56	no	left	p56_left	down	1	508	169	assess	TRUE
116	117	trial	1	25	yes	1	right	a36	no	right	a36_right	up	1	555	169	assess	TRUE
119	120	trial	1	26	no	1	right	p36	no	left	p36_left	up	1	454	169	assess	TRUE
122	123	trial	1	27	yes	0	left	p43	yes	left	p43_left	down	1	1100	169	assess	TRUE
125	126	trial	1	28	no	1	right	a24	no	left	a24_left	down	1	476	169	assess	TRUE
128	129	trial	1	29	yes	1	right	p47	yes	right	p47_right	down	1	536	169	assess	TRUE
131	132	trial	1	30	yes	0	right	a24	no	right	a24_right	down	1	539	169	assess	TRUE
134	135	trial	1	31	yes	0	left	p36	no	left	p36_left	up	1	925	169	assess	TRUE
137	138	trial	1	32	no	0	left	a52	no	right	a52_right	up	1	558	169	assess	TRUE
140	141	trial	1	33	no	0	left	p36	no	right	p36_right	up	1	617	169	assess	TRUE
143	144	trial	1	34	no	1	left	p56	no	right	p56_right	down	1	689	169	assess	TRUE
146	147	trial	1	35	yes	0	left	a24	yes	left	a24_left	down	1	447	169	assess	TRUE
149	150	trial	1	36	yes	1	right	p36	no	right	p36_right	down	1	497	169	assess	TRUE
152	153	trial	1	37	no	1	right	p47	yes	left	p47_left	down	1	578	169	assess	TRUE
155	156	trial	1	38	yes	0	right	a52	no	right	a52_right	down	1	564	169	assess	TRUE
158	159	trial	1	39	yes	1	right	p56	yes	right	p56_right	down	1	446	169	assess	TRUE
161	162	trial	1	40	yes	1	left	a38	no	left	a38_left	up	1	752	169	assess	TRUE
164	165	trial	1	41	no	0	left	p43	yes	right	p43_right	up	1	676	169	assess	TRUE
167	168	trial	1	42	no	1	right	p36	yes	left	p36_left	up	1	446	169	assess	TRUE
170	171	trial	1	43	yes	1	right	a36	yes	right	a36_right	up	1	552	169	assess	TRUE
173	174	trial	1	44	no	1	left	p36	no	right	p36_right	down	1	702	169	assess	TRUE
176	177	trial	1	45	no	0	right	a24	no	left	a24_left	up	1	484	169	assess	TRUE
179	180	trial	1	46	yes	0	right	a38	yes	right	a38_right	down	1	510	169	assess	TRUE
182	183	trial	1	47	no	0	right	p43	no	left	p43_left	up	1	694	169	assess	TRUE
185	186	trial	1	48	no	0	left	a36	yes	right	a36_right	down	1	396	169	assess	TRUE
188	189	trial	1	49	no	0	right	a38	yes	left	a38_left	down	1	499	169	assess	TRUE
191	192	trial	1	50	yes	1	left	a36	yes	left	a36_left	up	1	478	169	assess	TRUE
194	195	trial	1	51	yes	0	left	a36	no	left	a36_left	up	1	589	169	assess	TRUE
197	198	trial	1	52	yes	0	left	p56	yes	left	p56_left	down	1	476	169	assess	TRUE
200	201	trial	1	53	no	0	left	p36	yes	right	p36_right	down	1	562	169	assess	TRUE
203	204	trial	1	54	no	1	right	p43	no	left	p43_left	down	1	577	169	assess	TRUE
206	207	trial	1	55	no	1	right	p56	yes	left	p56_left	down	1	484	169	assess	TRUE
209	210	trial	1	56	no	1	right	a24	yes	left	a24_left	up	1	466	169	assess	TRUE
212	213	trial	1	57	yes	1	right	a24	no	right	a24_right	up	1	586	169	assess	TRUE
215	216	trial	1	58	yes	1	left	p36	no	left	p36_left	down	1	542	169	assess	TRUE
218	219	trial	1	59	yes	1	right	a38	no	right	a38_right	up	1	463	169	assess	TRUE
221	222	trial	1	60	no	1	left	a36	yes	right	a36_right	down	1	604	169	assess	TRUE
224	225	trial	1	61	yes	1	left	a52	no	left	a52_left	down	1	445	169	assess	TRUE
227	228	trial	1	62	no	1	right	p43	yes	left	p43_left	up	1	670	169	assess	TRUE
230	231	trial	1	63	no	0	right	p47	yes	left	p47_left	down	1	500	169	assess	TRUE
233	234	trial	1	64	yes	1	right	a52	no	right	a52_right	down	1	662	169	assess	TRUE
236	237	trial	1	65	yes	0	left	p56	no	left	p56_left	down	1	625	169	assess	TRUE
239	240	trial	1	66	yes	0	left	a36	yes	left	a36_left	down	1	529	169	assess	TRUE
242	243	trial	1	67	yes	1	left	p56	no	left	p56_left	down	1	620	169	assess	TRUE
245	246	trial	1	68	no	1	left	a24	yes	right	a24_right	up	1	855	169	assess	TRUE
248	249	trial	1	69	no	1	left	a24	no	right	a24_right	up	1	656	169	assess	TRUE
251	252	trial	1	70	yes	1	left	p47	no	left	p47_left	up	1	614	169	assess	TRUE
254	255	trial	1	71	no	0	right	a52	no	left	a52_left	down	1	734	169	assess	TRUE
257	258	trial	1	72	yes	0	right	a36	yes	right	a36_right	down	1	626	169	assess	TRUE
260	261	trial	1	73	yes	1	right	p43	no	right	p43_right	up	1	717	169	assess	TRUE
263	264	trial	1	74	yes	0	left	a38	no	left	a38_left	down	1	443	169	assess	TRUE
266	267	trial	1	75	no	0	right	p47	no	left	p47_left	up	1	490	169	assess	TRUE
269	270	trial	1	76	yes	1	left	p47	yes	left	p47_left	up	1	458	169	assess	TRUE
272	273	trial	1	77	no	1	right	a38	yes	left	a38_left	up	1	406	169	assess	TRUE
275	276	trial	1	78	no	0	right	p43	yes	left	p43_left	up	1	409	169	assess	TRUE
278	279	trial	1	79	no	1	left	p43	yes	right	p43_right	down	1	738	169	assess	TRUE
281	282	trial	1	80	yes	1	left	a52	yes	left	a52_left	up	1	394	169	assess	TRUE
284	285	trial	1	81	no	0	right	p56	no	left	p56_left	up	1	446	169	assess	TRUE
287	288	trial	1	82	no	1	left	a38	no	right	a38_right	down	1	490	169	assess	TRUE
290	291	trial	1	83	yes	0	right	p47	yes	right	p47_right	up	1	388	169	assess	TRUE
293	294	trial	1	84	no	1	right	a38	no	left	a38_left	up	1	482	169	assess	TRUE
296	297	trial	1	85	no	0	left	a24	yes	right	a24_right	up	2	578	169	assess	TRUE
300	301	trial	1	86	yes	1	left	p43	yes	left	p43_left	down	1	599	169	assess	TRUE
303	304	trial	1	87	yes	0	right	p56	no	right	p56_right	down	1	524	169	assess	TRUE
306	307	trial	1	88	no	0	right	a36	yes	left	a36_left	up	1	483	169	assess	TRUE
309	310	trial	1	89	yes	0	right	p47	no	right	p47_right	up	1	584	169	assess	TRUE
312	313	trial	1	90	yes	1	left	p56	yes	left	p56_left	down	1	662	169	assess	TRUE
315	316	trial	1	91	yes	0	right	a38	no	right	a38_right	up	1	472	169	assess	TRUE
318	319	trial	1	92	yes	1	left	a24	yes	left	a24_left	down	1	682	169	assess	TRUE
321	322	trial	1	93	yes	1	left	p43	no	left	p43_left	up	1	721	169	assess	TRUE
324	325	trial	1	94	no	1	left	p47	yes	right	p47_right	down	2	581	169	assess	TRUE
328	329	trial	1	95	no	0	left	a52	yes	right	a52_right	up	1	501	169	assess	TRUE
331	332	trial	1	96	no	0	right	a52	yes	left	a52_left	up	1	440	169	assess	TRUE
334	335	trial	1	97	yes	0	right	a36	no	right	a36_right	down	1	568	169	assess	TRUE
337	338	trial	1	98	yes	0	right	a52	yes	right	a52_right	up	1	492	169	assess	TRUE
340	341	trial	1	99	no	1	left	p47	no	right	p47_right	up	1	645	169	assess	TRUE
343	344	trial	1	100	yes	1	left	a24	no	left	a24_left	up	1	691	169	assess	TRUE
346	347	trial	1	101	no	1	right	a52	no	left	a52_left	up	1	727	169	assess	TRUE
349	350	trial	1	102	yes	0	right	p56	yes	right	p56_right	down	1	527	169	assess	TRUE
352	353	trial	1	103	no	0	right	p56	yes	left	p56_left	up	1	737	169	assess	TRUE
355	356	trial	1	104	yes	1	right	a52	yes	right	a52_right	down	1	460	169	assess	TRUE
358	359	trial	1	105	yes	1	right	p36	yes	right	p36_right	up	1	444	169	assess	TRUE
361	362	trial	1	106	yes	1	right	a24	yes	right	a24_right	up	1	418	169	assess	TRUE
364	365	trial	1	107	yes	1	right	p43	yes	right	p43_right	down	1	472	169	assess	TRUE
367	368	trial	1	108	yes	1	right	p47	no	right	p47_right	down	1	605	169	assess	TRUE
370	371	trial	1	109	yes	0	left	a52	no	left	a52_left	down	1	2155	169	assess	TRUE
373	374	trial	1	110	yes	0	left	a24	no	left	a24_left	up	1	1831	169	assess	TRUE
376	377	trial	1	111	yes	0	left	p36	yes	left	p36_left	up	2	447	169	assess	TRUE
380	381	trial	1	112	yes	0	left	a38	yes	left	a38_left	down	1	493	169	assess	TRUE
383	384	trial	1	113	no	0	right	a38	no	left	a38_left	down	1	753	169	assess	TRUE
386	387	trial	1	114	no	1	left	a52	yes	right	a52_right	down	1	613	169	assess	TRUE
389	390	trial	1	115	no	0	left	a38	no	right	a38_right	up	1	717	169	assess	TRUE
392	393	trial	1	116	yes	1	right	a38	yes	right	a38_right	down	1	600	169	assess	TRUE
395	396	trial	1	117	yes	0	right	p36	no	right	p36_right	down	1	519	169	assess	TRUE
398	399	trial	1	118	no	0	right	a36	no	left	a36_left	up	1	528	169	assess	TRUE
401	402	trial	1	119	no	0	left	a24	no	right	a24_right	down	1	709	169	assess	TRUE
404	405	trial	1	120	yes	1	left	a36	no	left	a36_left	down	1	552	169	assess	TRUE
407	408	trial	1	121	yes	1	left	p36	yes	left	p36_left	down	1	691	169	assess	TRUE
410	411	trial	1	122	yes	0	right	a24	yes	right	a24_right	up	1	456	169	assess	TRUE
413	414	trial	1	123	yes	0	right	p43	yes	right	p43_right	up	1	479	169	assess	TRUE
416	417	trial	1	124	no	1	left	a36	no	right	a36_right	up	1	457	169	assess	TRUE
419	420	trial	1	125	yes	0	left	p47	yes	left	p47_left	up	1	769	169	assess	TRUE
422	423	trial	1	126	no	0	left	p47	no	right	p47_right	up	1	586	169	assess	TRUE
425	426	trial	1	127	yes	0	left	p47	no	left	p47_left	down	2	567	169	assess	TRUE
433	434	trial	2	0	yes	1	left	a73	no	left	a73_left	up	1	857	169	train	TRUE
436	437	trial	2	1	yes	0	right	p59	no	right	p59_right	down	1	671	169	train	TRUE
439	440	trial	2	2	yes	0	left	p19	yes	left	p19_left	down	1	787	169	train	TRUE
442	443	trial	2	3	no	1	left	a37	no	right	a37_right	up	1	641	169	train	TRUE
445	446	trial	2	4	yes	0	left	a43	no	left	a43_left	down	1	709	169	train	TRUE
448	449	trial	2	5	yes	0	left	p53	yes	left	p53_left	down	1	484	169	train	TRUE
451	452	trial	2	6	no	1	left	p17	yes	right	p17_right	up	1	527	169	train	TRUE
454	455	trial	2	7	no	1	left	a43	yes	right	a43_right	down	1	624	169	train	TRUE
457	458	trial	2	8	yes	1	left	a19	yes	left	a19_left	up	1	466	169	train	TRUE
460	461	trial	2	9	no	0	left	a49	no	right	a49_right	down	1	600	169	train	TRUE
463	464	trial	2	10	yes	0	right	a73	yes	right	a73_right	down	1	656	169	train	TRUE
466	467	trial	2	11	yes	1	left	a64	no	left	a64_left	down	1	901	169	train	TRUE
469	470	trial	2	12	yes	1	right	a43	no	right	a43_right	up	1	651	169	train	TRUE
472	473	trial	2	13	yes	0	right	a43	yes	right	a43_right	down	1	656	169	train	TRUE
475	476	trial	2	14	no	0	left	p59	no	right	p59_right	up	1	660	169	train	TRUE
478	479	trial	2	15	no	0	right	a49	yes	left	a49_left	up	1	595	169	train	TRUE
481	482	trial	2	16	yes	1	left	a37	yes	left	a37_left	down	1	515	169	train	TRUE
484	485	trial	2	17	yes	0	right	a73	no	right	a73_right	down	1	549	169	train	TRUE
487	488	trial	2	18	yes	0	left	p53	no	left	p53_left	down	1	752	169	train	TRUE
490	491	trial	2	19	yes	0	left	p17	yes	left	p17_left	up	1	529	169	train	TRUE
493	494	trial	2	20	yes	1	right	a64	yes	right	a64_right	down	1	941	169	train	TRUE
496	497	trial	2	21	no	1	left	a64	no	right	a64_right	down	1	479	169	train	TRUE
499	500	trial	2	22	no	0	right	p59	no	left	p59_left	up	1	477	169	train	TRUE
502	503	trial	2	23	yes	0	right	a64	no	right	a64_right	up	1	514	169	train	TRUE
505	506	trial	2	24	yes	0	left	p70	yes	left	p70_left	down	1	633	169	train	TRUE
508	509	trial	2	25	yes	0	right	p70	no	right	p70_right	down	1	744	169	train	TRUE
511	512	trial	2	26	no	0	right	p19	no	left	p19_left	up	1	663	169	train	TRUE
514	515	trial	2	27	yes	0	left	a19	yes	left	a19_left	up	1	624	169	train	TRUE
517	518	trial	2	28	yes	1	left	p19	yes	left	p19_left	up	1	554	169	train	TRUE
520	521	trial	2	29	yes	0	right	p53	yes	right	p53_right	up	1	408	169	train	TRUE
523	524	trial	2	30	no	1	left	a73	yes	right	a73_right	up	1	380	169	train	TRUE
526	527	trial	2	31	no	1	right	p53	no	left	p53_left	up	1	439	169	train	TRUE
529	530	trial	2	32	yes	1	left	p70	no	left	p70_left	down	1	798	169	train	TRUE
532	533	trial	2	33	yes	1	right	a49	yes	right	a49_right	down	1	512	169	train	TRUE
535	536	trial	2	34	no	0	left	a73	yes	right	a73_right	down	1	671	169	train	TRUE
538	539	trial	2	35	no	0	right	a43	yes	left	a43_left	down	1	471	169	train	TRUE
541	542	trial	2	36	yes	1	right	p53	no	right	p53_right	up	1	490	169	train	TRUE
544	545	trial	2	37	no	1	left	p53	no	right	p53_right	down	2	537	169	train	TRUE
548	549	trial	2	38	no	0	right	p28	no	left	p28_left	up	2	1102	169	train	TRUE
552	553	trial	2	39	yes	1	right	a64	no	right	a64_right	up	1	693	169	train	TRUE
555	556	trial	2	40	no	0	left	p19	no	right	p19_right	up	1	602	169	train	TRUE
558	559	trial	2	41	yes	1	left	p59	yes	left	p59_left	down	1	602	169	train	TRUE
561	562	trial	2	42	yes	1	left	p59	no	left	p59_left	up	1	679	169	train	TRUE
564	565	trial	2	43	no	1	left	a19	yes	right	a19_right	down	1	517	169	train	TRUE
567	568	trial	2	44	no	0	right	a49	no	left	a49_left	up	1	718	169	train	TRUE
570	571	trial	2	45	yes	1	left	a43	yes	left	a43_left	up	1	816	169	train	TRUE
573	574	trial	2	46	yes	0	right	p59	yes	right	p59_right	up	1	665	169	train	TRUE
576	577	trial	2	47	no	0	right	p70	yes	left	p70_left	down	1	451	169	train	TRUE
579	580	trial	2	48	yes	0	left	a49	yes	left	a49_left	up	1	464	169	train	TRUE
582	583	trial	2	49	no	1	left	p70	yes	right	p70_right	up	1	501	169	train	TRUE
585	586	trial	2	50	no	1	right	a49	no	left	a49_left	up	1	645	169	train	TRUE
588	589	trial	2	51	no	0	left	p17	yes	right	p17_right	down	1	433	169	train	TRUE
591	592	trial	2	52	no	1	left	a43	no	right	a43_right	down	1	479	169	train	TRUE
594	595	trial	2	53	yes	1	right	p59	no	right	p59_right	up	1	390	169	train	TRUE
597	598	trial	2	54	no	1	right	a73	no	left	a73_left	down	1	747	169	train	TRUE
600	601	trial	2	55	yes	0	right	a49	yes	right	a49_right	up	1	380	169	train	TRUE
603	604	trial	2	56	no	0	left	a19	no	right	a19_right	down	1	733	169	train	TRUE
606	607	trial	2	57	no	1	right	a19	yes	left	a19_left	up	1	353	169	train	TRUE
609	610	trial	2	58	no	1	left	p17	no	right	p17_right	down	1	541	169	train	TRUE
612	613	trial	2	59	yes	1	left	p19	no	left	p19_left	up	1	689	169	train	TRUE
615	616	trial	2	60	no	1	left	a19	no	right	a19_right	down	1	737	169	train	TRUE
618	619	trial	2	61	no	0	left	p53	no	right	p53_right	up	1	501	169	train	TRUE
621	622	trial	2	62	no	1	right	a49	yes	left	a49_left	up	1	559	169	train	TRUE
624	625	trial	2	63	no	1	right	p70	no	left	p70_left	down	1	697	169	train	TRUE
627	628	trial	2	64	no	1	right	p17	no	left	p17_left	down	1	557	169	train	TRUE
630	631	trial	2	65	yes	0	left	a19	no	left	a19_left	down	1	996	169	train	TRUE
633	634	trial	2	66	yes	1	right	p28	no	right	p28_right	up	1	415	169	train	TRUE
636	637	trial	2	67	no	0	left	a43	yes	right	a43_right	up	1	1460	169	train	TRUE
639	640	trial	2	68	no	1	right	a19	no	left	a19_left	up	2	594	169	train	TRUE
643	644	trial	2	69	no	1	right	a43	yes	left	a43_left	down	1	649	169	train	TRUE
646	647	trial	2	70	no	0	left	a64	yes	right	a64_right	up	1	724	169	train	TRUE
649	650	trial	2	71	yes	1	left	p70	yes	left	p70_left	down	1	561	169	train	TRUE
652	653	trial	2	72	no	1	right	a64	yes	left	a64_left	up	1	586	169	train	TRUE
655	656	trial	2	73	yes	0	left	a64	no	left	a64_left	up	1	467	169	train	TRUE
658	659	trial	2	74	yes	0	left	p59	yes	left	p59_left	down	1	531	169	train	TRUE
661	662	trial	2	75	no	0	right	p70	no	left	p70_left	up	1	528	169	train	TRUE
664	665	trial	2	76	yes	1	right	p19	yes	right	p19_right	down	1	484	169	train	TRUE
667	668	trial	2	77	no	0	right	a19	no	left	a19_left	up	1	443	169	train	TRUE
670	671	trial	2	78	yes	0	right	a19	no	right	a19_right	down	1	557	169	train	TRUE
673	674	trial	2	79	yes	1	right	p70	yes	right	p70_right	up	1	633	169	train	TRUE
676	677	trial	2	80	yes	0	right	a37	yes	right	a37_right	down	1	484	169	train	TRUE
679	680	trial	2	81	no	0	right	p53	yes	left	p53_left	down	1	408	169	train	TRUE
682	683	trial	2	82	yes	1	right	p19	no	right	p19_right	up	1	574	169	train	TRUE
685	686	trial	2	83	no	1	right	p59	no	left	p59_left	up	1	474	169	train	TRUE
688	689	trial	2	84	yes	1	right	p59	yes	right	p59_right	up	1	489	169	train	TRUE
691	692	trial	2	85	no	0	right	p53	no	left	p53_left	up	1	575	169	train	TRUE
694	695	trial	2	86	yes	1	right	p70	no	right	p70_right	up	1	872	169	train	TRUE
697	698	trial	2	87	no	1	left	p28	yes	right	p28_right	up	1	798	169	train	TRUE
700	701	trial	2	88	yes	0	left	a73	no	left	a73_left	up	1	500	169	train	TRUE
703	704	trial	2	89	no	0	left	p28	yes	right	p28_right	down	1	636	169	train	TRUE
706	707	trial	2	90	no	0	left	p70	yes	right	p70_right	down	1	708	169	train	TRUE
709	710	trial	2	91	yes	0	left	p28	yes	left	p28_left	down	1	774	169	train	TRUE
712	713	trial	2	92	no	1	right	a73	yes	left	a73_left	down	1	500	169	train	TRUE
715	716	trial	2	93	no	0	right	p19	yes	left	p19_left	up	1	562	169	train	TRUE
718	719	trial	2	94	yes	0	right	p17	no	right	p17_right	up	1	700	169	train	TRUE
721	722	trial	2	95	no	1	right	a43	no	left	a43_left	up	1	603	169	train	TRUE
728	729	trial	3	0	yes	1	left	p17	yes	left	p17_left	up	1	550	169	train	TRUE
731	732	trial	3	1	yes	0	right	p70	yes	right	p70_right	down	1	787	169	train	TRUE
734	735	trial	3	2	yes	0	right	p28	yes	right	p28_right	down	1	397	169	train	TRUE
737	738	trial	3	3	no	0	right	a73	no	left	a73_left	up	1	426	169	train	TRUE
740	741	trial	3	4	yes	1	left	a73	yes	left	a73_left	up	1	649	169	train	TRUE
743	744	trial	3	5	yes	0	right	p53	no	right	p53_right	up	1	451	169	train	TRUE
746	747	trial	3	6	yes	1	right	p53	yes	right	p53_right	down	1	1123	169	train	TRUE
749	750	trial	3	7	no	0	left	a37	no	right	a37_right	down	1	563	169	train	TRUE
752	753	trial	3	8	yes	0	right	p28	no	right	p28_right	down	1	458	169	train	TRUE
755	756	trial	3	9	yes	0	left	a37	no	left	a37_left	down	1	546	169	train	TRUE
758	759	trial	3	10	yes	0	left	p19	no	left	p19_left	down	1	889	169	train	TRUE
761	762	trial	3	11	no	1	right	p53	yes	left	p53_left	up	1	368	169	train	TRUE
764	765	trial	3	12	yes	0	right	a64	yes	right	a64_right	up	1	480	169	train	TRUE
767	768	trial	3	13	no	1	left	p19	yes	right	p19_right	up	1	584	169	train	TRUE
770	771	trial	3	14	no	1	right	p28	no	left	p28_left	down	1	685	169	train	TRUE
773	774	trial	3	15	yes	0	left	p70	no	left	p70_left	up	1	630	169	train	TRUE
776	777	trial	3	16	yes	0	left	a64	yes	left	a64_left	down	1	486	169	train	TRUE
779	780	trial	3	17	yes	1	left	p28	yes	left	p28_left	down	1	455	169	train	TRUE
782	783	trial	3	18	no	0	right	p17	yes	left	p17_left	up	1	665	169	train	TRUE
785	786	trial	3	19	no	1	left	p59	no	right	p59_right	up	1	674	169	train	TRUE
788	789	trial	3	20	no	1	right	a64	no	left	a64_left	up	1	411	169	train	TRUE
791	792	trial	3	21	yes	0	left	p28	no	left	p28_left	up	1	713	169	train	TRUE
794	795	trial	3	22	no	0	left	p19	yes	right	p19_right	down	1	476	169	train	TRUE
797	798	trial	3	23	yes	1	right	a37	no	right	a37_right	down	1	558	169	train	TRUE
800	801	trial	3	24	yes	0	left	p17	no	left	p17_left	down	1	657	169	train	TRUE
803	804	trial	3	25	no	1	right	p28	yes	left	p28_left	down	1	773	169	train	TRUE
806	807	trial	3	26	no	0	left	p59	yes	right	p59_right	up	1	683	169	train	TRUE
809	810	trial	3	27	yes	0	left	a37	yes	left	a37_left	down	1	702	169	train	TRUE
812	813	trial	3	28	yes	1	right	p17	yes	right	p17_right	down	1	478	169	train	TRUE
815	816	trial	3	29	no	0	right	a19	yes	left	a19_left	up	1	554	169	train	TRUE
818	819	trial	3	30	no	1	left	p53	yes	right	p53_right	down	2	558	169	train	TRUE
822	823	trial	3	31	no	0	right	a37	no	left	a37_left	up	1	433	169	train	TRUE
825	826	trial	3	32	no	1	right	p17	yes	left	p17_left	down	1	436	169	train	TRUE
828	829	trial	3	33	yes	0	right	a43	no	right	a43_right	up	1	462	169	train	TRUE
831	832	trial	3	34	no	1	left	a37	yes	right	a37_right	up	1	566	169	train	TRUE
834	835	trial	3	35	yes	1	left	a19	no	left	a19_left	up	1	802	169	train	TRUE
837	838	trial	3	36	yes	0	right	a19	yes	right	a19_right	down	1	454	169	train	TRUE
840	841	trial	3	37	yes	1	left	p53	no	left	p53_left	down	1	661	169	train	TRUE
843	844	trial	3	38	no	1	left	p70	no	right	p70_right	down	1	756	169	train	TRUE
846	847	trial	3	39	yes	1	left	p17	no	left	p17_left	down	1	705	169	train	TRUE
849	850	trial	3	40	yes	0	left	p59	no	left	p59_left	down	1	622	169	train	TRUE
852	853	trial	3	41	no	0	left	p53	yes	right	p53_right	down	1	496	169	train	TRUE
855	856	trial	3	42	no	0	right	a64	no	left	a64_left	down	1	489	169	train	TRUE
858	859	trial	3	43	no	1	right	a37	no	left	a37_left	down	1	435	169	train	TRUE
861	862	trial	3	44	no	0	left	a73	no	right	a73_right	down	1	515	169	train	TRUE
864	865	trial	3	45	no	0	left	a49	yes	right	a49_right	down	1	492	169	train	TRUE
867	868	trial	3	46	yes	1	right	a37	yes	right	a37_right	up	1	557	169	train	TRUE
870	871	trial	3	47	yes	1	right	a19	no	right	a19_right	up	1	720	169	train	TRUE
873	874	trial	3	48	no	1	left	p59	yes	right	p59_right	down	1	595	169	train	TRUE
876	877	trial	3	49	yes	0	left	a43	yes	left	a43_left	down	1	424	169	train	TRUE
879	880	trial	3	50	yes	0	right	a49	no	right	a49_right	down	1	387	169	train	TRUE
882	883	trial	3	51	no	1	left	a64	yes	right	a64_right	up	1	653	169	train	TRUE
885	886	trial	3	52	no	0	right	a43	no	left	a43_left	down	1	553	169	train	TRUE
888	889	trial	3	53	no	1	left	a49	yes	right	a49_right	up	1	770	169	train	TRUE
891	892	trial	3	54	no	0	left	a37	yes	right	a37_right	up	1	499	169	train	TRUE
894	895	trial	3	55	yes	1	left	a49	no	left	a49_left	down	1	552	169	train	TRUE
897	898	trial	3	56	yes	0	left	a73	yes	left	a73_left	down	1	585	169	train	TRUE
900	901	trial	3	57	yes	1	right	p17	no	right	p17_right	up	1	767	169	train	TRUE
903	904	trial	3	58	no	0	left	p70	no	right	p70_right	up	1	466	169	train	TRUE
906	907	trial	3	59	yes	1	right	a43	yes	right	a43_right	up	1	604	169	train	TRUE
909	910	trial	3	60	no	0	right	p28	yes	left	p28_left	down	1	578	169	train	TRUE
912	913	trial	3	61	no	1	right	a37	yes	left	a37_left	down	1	472	169	train	TRUE
915	916	trial	3	62	yes	1	left	a49	yes	left	a49_left	up	1	681	169	train	TRUE
918	919	trial	3	63	yes	1	left	p28	no	left	p28_left	down	1	581	169	train	TRUE
921	922	trial	3	64	no	0	left	p17	no	right	p17_right	up	1	544	169	train	TRUE
924	925	trial	3	65	no	0	left	p28	no	right	p28_right	down	1	564	169	train	TRUE
927	928	trial	3	66	no	1	right	p70	yes	left	p70_left	down	1	686	169	train	TRUE
930	931	trial	3	67	yes	0	right	p19	no	right	p19_right	up	1	580	169	train	TRUE
933	934	trial	3	68	yes	1	right	a73	yes	right	a73_right	up	1	438	169	train	TRUE
936	937	trial	3	69	no	0	right	a64	yes	left	a64_left	down	1	487	169	train	TRUE
939	940	trial	3	70	yes	1	left	a43	no	left	a43_left	up	1	634	169	train	TRUE
942	943	trial	3	71	no	1	right	p59	yes	left	p59_left	down	1	451	169	train	TRUE
945	946	trial	3	72	yes	1	right	a19	yes	right	a19_right	down	1	767	169	train	TRUE
948	949	trial	3	73	yes	1	right	p28	yes	right	p28_right	up	1	433	169	train	TRUE
951	952	trial	3	74	yes	1	right	a73	no	right	a73_right	down	1	585	169	train	TRUE
954	955	trial	3	75	yes	1	left	a64	yes	left	a64_left	down	1	527	169	train	TRUE
957	958	trial	3	76	no	1	left	p28	no	right	p28_right	up	1	480	169	train	TRUE
960	961	trial	3	77	no	0	right	a37	yes	left	a37_left	up	1	477	169	train	TRUE
963	964	trial	3	78	no	1	right	p19	no	left	p19_left	up	1	496	169	train	TRUE
966	967	trial	3	79	no	0	left	a64	no	right	a64_right	down	1	776	169	train	TRUE
969	970	trial	3	80	no	0	right	p59	yes	left	p59_left	up	1	374	169	train	TRUE
972	973	trial	3	81	yes	1	right	a49	no	right	a49_right	down	1	654	169	train	TRUE
975	976	trial	3	82	no	1	left	a73	no	right	a73_right	down	1	1260	169	train	TRUE
978	979	trial	3	83	no	1	left	a49	no	right	a49_right	down	1	710	169	train	TRUE
981	982	trial	3	84	no	1	right	p19	yes	left	p19_left	down	1	605	169	train	TRUE
984	985	trial	3	85	no	0	left	a43	no	right	a43_right	down	1	514	169	train	TRUE
987	988	trial	3	86	yes	0	right	p19	yes	right	p19_right	up	1	503	169	train	TRUE
990	991	trial	3	87	no	0	left	a19	yes	right	a19_right	up	1	736	169	train	TRUE
993	994	trial	3	88	no	0	right	p17	no	left	p17_left	down	1	499	169	train	TRUE
996	997	trial	3	89	no	1	left	p19	no	right	p19_right	up	1	573	169	train	TRUE
999	1000	trial	3	90	yes	0	right	p17	yes	right	p17_right	up	1	441	169	train	TRUE
1002	1003	trial	3	91	yes	1	left	p53	yes	left	p53_left	up	1	555	169	train	TRUE
1005	1006	trial	3	92	yes	0	right	a37	no	right	a37_right	down	1	485	169	train	TRUE
1008	1009	trial	3	93	no	0	right	a73	yes	left	a73_left	up	1	817	169	train	TRUE
1011	1012	trial	3	94	yes	1	left	a37	no	left	a37_left	up	1	499	169	train	TRUE
1014	1015	trial	3	95	yes	0	left	a49	no	left	a49_left	up	1	527	169	train	TRUE
16	17	trial	0	0	yes	0	right	practice	yes	right	practice_right	down	1	740	170	practice	TRUE
19	20	trial	0	1	no	0	right	practice	no	left	practice_left	up	1	520	170	practice	TRUE
22	23	trial	0	2	yes	0	left	practice	no	left	practice_left	up	1	725	170	practice	TRUE
25	26	trial	0	3	no	0	right	practice	yes	left	practice_left	up	1	496	170	practice	TRUE
28	29	trial	0	4	no	0	left	practice	no	right	practice_right	down	1	648	170	practice	TRUE
31	32	trial	0	5	no	0	left	practice	yes	right	practice_right	up	1	510	170	practice	TRUE
34	35	trial	0	6	yes	0	left	practice	yes	left	practice_left	down	1	548	170	practice	TRUE
37	38	trial	0	7	yes	0	right	practice	no	right	practice_right	down	1	540	170	practice	TRUE
44	45	trial	1	0	yes	0	right	a56	no	right	a56_right	up	1	549	170	assess	TRUE
47	48	trial	1	1	no	1	right	p41	yes	left	p41_left	down	1	659	170	assess	TRUE
50	51	trial	1	2	yes	0	right	a54	yes	right	a54_right	down	1	673	170	assess	TRUE
53	54	trial	1	3	yes	1	left	a56	yes	left	a56_left	down	1	541	170	assess	TRUE
56	57	trial	1	4	no	1	left	p10	no	right	p10_right	up	1	605	170	assess	TRUE
59	60	trial	1	5	no	0	left	p10	no	right	p10_right	down	1	646	170	assess	TRUE
62	63	trial	1	6	yes	0	right	a39	yes	right	a39_right	down	1	460	170	assess	TRUE
65	66	trial	1	7	no	0	left	a56	no	right	a56_right	up	1	750	170	assess	TRUE
68	69	trial	1	8	no	0	left	a39	yes	right	a39_right	up	1	684	170	assess	TRUE
71	72	trial	1	9	yes	1	left	p44	no	left	p44_left	down	1	605	170	assess	TRUE
74	75	trial	1	10	no	0	left	p44	yes	right	p44_right	up	1	672	170	assess	TRUE
77	78	trial	1	11	yes	1	left	p44	yes	left	p44_left	up	1	758	170	assess	TRUE
80	81	trial	1	12	no	1	left	a54	yes	right	a54_right	up	1	870	170	assess	TRUE
83	84	trial	1	13	yes	1	right	p41	yes	right	p41_right	up	3	NA	170	assess	TRUE
87	88	trial	1	14	yes	1	left	a54	no	left	a54_left	up	1	767	170	assess	TRUE
90	91	trial	1	15	yes	1	left	a54	yes	left	a54_left	up	1	502	170	assess	TRUE
93	94	trial	1	16	yes	0	left	a54	no	left	a54_left	up	1	489	170	assess	TRUE
96	97	trial	1	17	no	0	left	a39	no	right	a39_right	up	1	667	170	assess	TRUE
99	100	trial	1	18	no	0	right	a63	no	left	a63_left	up	1	378	170	assess	TRUE
102	103	trial	1	19	yes	0	left	p41	no	left	p41_left	up	1	591	170	assess	TRUE
105	106	trial	1	20	yes	0	left	p10	no	left	p10_left	up	1	525	170	assess	TRUE
108	109	trial	1	21	yes	1	left	a63	yes	left	a63_left	up	1	423	170	assess	TRUE
111	112	trial	1	22	yes	1	left	a63	no	left	a63_left	up	1	534	170	assess	TRUE
114	115	trial	1	23	yes	0	right	a54	no	right	a54_right	down	1	550	170	assess	TRUE
117	118	trial	1	24	no	1	right	p10	yes	left	p10_left	up	1	562	170	assess	TRUE
120	121	trial	1	25	yes	0	left	p10	yes	left	p10_left	down	1	596	170	assess	TRUE
123	124	trial	1	26	no	1	right	a54	no	left	a54_left	down	1	606	170	assess	TRUE
126	127	trial	1	27	no	0	left	p25	yes	right	p25_right	up	1	591	170	assess	TRUE
129	130	trial	1	28	yes	0	right	p44	yes	right	p44_right	up	1	694	170	assess	TRUE
132	133	trial	1	29	no	0	left	a63	yes	right	a63_right	up	1	451	170	assess	TRUE
135	136	trial	1	30	no	0	right	p44	yes	left	p44_left	down	1	481	170	assess	TRUE
138	139	trial	1	31	no	1	right	a39	yes	left	a39_left	down	1	498	170	assess	TRUE
141	142	trial	1	32	no	0	left	a63	no	right	a63_right	down	1	572	170	assess	TRUE
144	145	trial	1	33	yes	1	right	p10	no	right	p10_right	down	1	457	170	assess	TRUE
147	148	trial	1	34	no	1	right	a56	yes	left	a56_left	down	1	574	170	assess	TRUE
150	151	trial	1	35	no	1	left	a63	yes	right	a63_right	down	1	534	170	assess	TRUE
153	154	trial	1	36	yes	1	right	p25	yes	right	p25_right	down	1	469	170	assess	TRUE
156	157	trial	1	37	no	0	right	p10	yes	left	p10_left	up	1	566	170	assess	TRUE
159	160	trial	1	38	no	0	right	p41	no	left	p41_left	up	1	460	170	assess	TRUE
162	163	trial	1	39	no	1	right	p25	no	left	p25_left	up	1	414	170	assess	TRUE
165	166	trial	1	40	yes	1	right	p44	no	right	p44_right	up	1	609	170	assess	TRUE
168	169	trial	1	41	no	1	left	p10	yes	right	p10_right	down	1	654	170	assess	TRUE
171	172	trial	1	42	no	0	right	p10	no	left	p10_left	up	1	508	170	assess	TRUE
174	175	trial	1	43	no	0	left	p41	yes	right	p41_right	up	1	905	170	assess	TRUE
177	178	trial	1	44	no	0	left	p41	no	right	p41_right	down	1	500	170	assess	TRUE
180	181	trial	1	45	yes	1	right	a63	yes	right	a63_right	down	1	765	170	assess	TRUE
183	184	trial	1	46	yes	0	left	p25	no	left	p25_left	down	1	543	170	assess	TRUE
186	187	trial	1	47	yes	0	right	p41	yes	right	p41_right	down	1	2154	170	assess	TRUE
189	190	trial	1	48	yes	1	left	p25	yes	left	p25_left	up	3	NA	170	assess	TRUE
193	194	trial	1	49	no	1	left	p41	no	right	p41_right	up	1	488	170	assess	TRUE
196	197	trial	1	50	yes	0	left	a63	no	left	a63_left	down	1	678	170	assess	TRUE
199	200	trial	1	51	no	0	right	p25	no	left	p25_left	down	1	698	170	assess	TRUE
202	203	trial	1	52	no	1	left	a56	yes	right	a56_right	down	1	538	170	assess	TRUE
205	206	trial	1	53	yes	0	left	a54	yes	left	a54_left	down	1	508	170	assess	TRUE
208	209	trial	1	54	no	0	right	a56	no	left	a56_left	down	1	532	170	assess	TRUE
211	212	trial	1	55	yes	0	left	a63	yes	left	a63_left	up	1	505	170	assess	TRUE
214	215	trial	1	56	no	1	right	a63	no	left	a63_left	down	2	652	170	assess	TRUE
218	219	trial	1	57	no	1	left	p44	no	right	p44_right	down	1	487	170	assess	TRUE
221	222	trial	1	58	no	0	left	a54	no	right	a54_right	down	1	577	170	assess	TRUE
224	225	trial	1	59	yes	0	right	a63	yes	right	a63_right	up	1	416	170	assess	TRUE
227	228	trial	1	60	yes	0	left	p25	yes	left	p25_left	down	1	690	170	assess	TRUE
230	231	trial	1	61	no	0	left	a56	yes	right	a56_right	down	1	410	170	assess	TRUE
233	234	trial	1	62	yes	1	right	a54	yes	right	a54_right	up	1	548	170	assess	TRUE
236	237	trial	1	63	no	0	right	p25	yes	left	p25_left	down	1	541	170	assess	TRUE
239	240	trial	1	64	no	1	left	a63	no	right	a63_right	up	1	701	170	assess	TRUE
242	243	trial	1	65	no	1	right	a54	yes	left	a54_left	down	1	439	170	assess	TRUE
245	246	trial	1	66	yes	0	right	a39	no	right	a39_right	up	2	2203	170	assess	TRUE
249	250	trial	1	67	no	1	left	a39	yes	right	a39_right	up	1	563	170	assess	TRUE
252	253	trial	1	68	yes	1	right	a39	no	right	a39_right	down	1	509	170	assess	TRUE
255	256	trial	1	69	yes	0	left	p44	yes	left	p44_left	up	1	831	170	assess	TRUE
258	259	trial	1	70	yes	0	right	p44	no	right	p44_right	down	1	506	170	assess	TRUE
261	262	trial	1	71	yes	0	right	p10	no	right	p10_right	up	1	446	170	assess	TRUE
264	265	trial	1	72	yes	1	left	a56	no	left	a56_left	up	1	685	170	assess	TRUE
267	268	trial	1	73	no	1	right	p41	no	left	p41_left	down	1	638	170	assess	TRUE
270	271	trial	1	74	yes	1	right	a54	no	right	a54_right	up	1	490	170	assess	TRUE
273	274	trial	1	75	yes	1	left	a39	yes	left	a39_left	down	1	546	170	assess	TRUE
276	277	trial	1	76	yes	0	right	p25	yes	right	p25_right	down	1	561	170	assess	TRUE
279	280	trial	1	77	no	1	left	a54	no	right	a54_right	up	1	625	170	assess	TRUE
282	283	trial	1	78	yes	1	left	p10	yes	left	p10_left	down	1	581	170	assess	TRUE
285	286	trial	1	79	yes	0	left	p41	yes	left	p41_left	down	1	725	170	assess	TRUE
288	289	trial	1	80	yes	1	right	p10	yes	right	p10_right	up	1	527	170	assess	TRUE
291	292	trial	1	81	yes	0	left	a56	yes	left	a56_left	down	1	483	170	assess	TRUE
294	295	trial	1	82	no	0	right	a54	yes	left	a54_left	up	1	667	170	assess	TRUE
297	298	trial	1	83	no	0	right	p41	yes	left	p41_left	up	1	484	170	assess	TRUE
300	301	trial	1	84	yes	1	left	p10	no	left	p10_left	down	1	507	170	assess	TRUE
303	304	trial	1	85	yes	0	left	p44	no	left	p44_left	down	1	550	170	assess	TRUE
306	307	trial	1	86	yes	1	right	p44	yes	right	p44_right	down	1	495	170	assess	TRUE
309	310	trial	1	87	yes	1	right	p25	no	right	p25_right	down	1	548	170	assess	TRUE
312	313	trial	1	88	no	1	right	a39	no	left	a39_left	down	1	515	170	assess	TRUE
315	316	trial	1	89	no	1	left	p41	yes	right	p41_right	up	1	747	170	assess	TRUE
318	319	trial	1	90	no	1	left	a39	no	right	a39_right	up	1	690	170	assess	TRUE
321	322	trial	1	91	yes	1	left	p41	no	left	p41_left	up	1	482	170	assess	TRUE
324	325	trial	1	92	yes	0	left	a56	no	left	a56_left	down	1	558	170	assess	TRUE
327	328	trial	1	93	yes	0	left	a39	yes	left	a39_left	down	1	444	170	assess	TRUE
330	331	trial	1	94	yes	1	left	a39	no	left	a39_left	down	1	584	170	assess	TRUE
333	334	trial	1	95	yes	0	right	p10	yes	right	p10_right	up	1	478	170	assess	TRUE
336	337	trial	1	96	yes	1	right	a39	yes	right	a39_right	down	1	523	170	assess	TRUE
339	340	trial	1	97	yes	1	left	p41	yes	left	p41_left	up	1	578	170	assess	TRUE
342	343	trial	1	98	no	1	right	p10	no	left	p10_left	up	1	476	170	assess	TRUE
345	346	trial	1	99	no	0	right	a54	no	left	a54_left	up	1	474	170	assess	TRUE
348	349	trial	1	100	yes	1	right	p41	no	right	p41_right	down	1	443	170	assess	TRUE
351	352	trial	1	101	yes	1	left	p25	no	left	p25_left	down	1	552	170	assess	TRUE
354	355	trial	1	102	no	1	right	a56	no	left	a56_left	up	1	668	170	assess	TRUE
357	358	trial	1	103	no	0	left	p10	yes	right	p10_right	up	1	592	170	assess	TRUE
360	361	trial	1	104	no	0	left	a54	yes	right	a54_right	down	1	736	170	assess	TRUE
363	364	trial	1	105	yes	0	right	p41	no	right	p41_right	down	1	902	170	assess	TRUE
366	367	trial	1	106	no	0	right	a39	no	left	a39_left	down	1	526	170	assess	TRUE
369	370	trial	1	107	no	1	right	a63	yes	left	a63_left	up	1	616	170	assess	TRUE
372	373	trial	1	108	no	0	left	p25	no	right	p25_right	down	2	537	170	assess	TRUE
376	377	trial	1	109	no	0	right	p44	no	left	p44_left	up	1	564	170	assess	TRUE
379	380	trial	1	110	no	1	right	p25	yes	left	p25_left	down	1	438	170	assess	TRUE
382	383	trial	1	111	yes	0	right	a56	yes	right	a56_right	down	1	499	170	assess	TRUE
385	386	trial	1	112	yes	1	right	a63	no	right	a63_right	up	1	470	170	assess	TRUE
388	389	trial	1	113	no	1	left	p44	yes	right	p44_right	up	1	661	170	assess	TRUE
391	392	trial	1	114	no	0	right	a63	yes	left	a63_left	up	1	456	170	assess	TRUE
394	395	trial	1	115	no	1	left	a56	no	right	a56_right	down	1	529	170	assess	TRUE
397	398	trial	1	116	yes	1	right	a56	no	right	a56_right	down	1	522	170	assess	TRUE
400	401	trial	1	117	no	0	left	p44	no	right	p44_right	up	1	777	170	assess	TRUE
403	404	trial	1	118	yes	0	right	a63	no	right	a63_right	up	1	435	170	assess	TRUE
406	407	trial	1	119	no	0	right	a39	yes	left	a39_left	down	1	504	170	assess	TRUE
409	410	trial	1	120	no	1	left	p25	no	right	p25_right	down	1	764	170	assess	TRUE
412	413	trial	1	121	no	1	right	p44	yes	left	p44_left	up	1	469	170	assess	TRUE
415	416	trial	1	122	no	1	left	p25	yes	right	p25_right	up	1	374	170	assess	TRUE
418	419	trial	1	123	yes	0	left	a39	no	left	a39_left	up	1	636	170	assess	TRUE
421	422	trial	1	124	no	1	right	p44	no	left	p44_left	down	1	528	170	assess	TRUE
424	425	trial	1	125	yes	1	right	a56	yes	right	a56_right	down	1	495	170	assess	TRUE
427	428	trial	1	126	yes	0	right	p25	no	right	p25_right	up	1	663	170	assess	TRUE
430	431	trial	1	127	no	0	right	a56	yes	left	a56_left	up	1	424	170	assess	TRUE
437	438	trial	2	0	yes	1	left	p20	yes	left	p20_left	up	1	627	170	train	TRUE
440	441	trial	2	1	yes	1	right	p33	yes	right	p33_right	up	1	457	170	train	TRUE
443	444	trial	2	2	yes	1	left	a30	yes	left	a30_left	up	1	579	170	train	TRUE
446	447	trial	2	3	no	0	left	a71	yes	right	a71_right	down	1	655	170	train	TRUE
449	450	trial	2	4	yes	0	left	p20	no	left	p20_left	down	1	742	170	train	TRUE
452	453	trial	2	5	no	0	left	a9	no	right	a9_right	up	1	694	170	train	TRUE
455	456	trial	2	6	no	1	left	p38	yes	right	p38_right	down	1	509	170	train	TRUE
458	459	trial	2	7	no	0	right	p20	no	left	p20_left	down	1	514	170	train	TRUE
461	462	trial	2	8	no	1	right	p33	no	left	p33_left	up	1	579	170	train	TRUE
464	465	trial	2	9	yes	1	left	a14	no	left	a14_left	down	1	735	170	train	TRUE
467	468	trial	2	10	no	1	left	a71	no	right	a71_right	up	1	610	170	train	TRUE
470	471	trial	2	11	yes	0	right	a30	yes	right	a30_right	down	1	357	170	train	TRUE
473	474	trial	2	12	no	1	right	p38	no	left	p38_left	down	1	440	170	train	TRUE
476	477	trial	2	13	yes	1	right	p74	no	right	p74_right	up	1	424	170	train	TRUE
479	480	trial	2	14	yes	1	left	a47	yes	left	a47_left	up	1	656	170	train	TRUE
482	483	trial	2	15	yes	0	left	a30	no	left	a30_left	up	1	471	170	train	TRUE
485	486	trial	2	16	yes	1	right	p33	no	right	p33_right	up	1	500	170	train	TRUE
488	489	trial	2	17	no	1	right	p74	no	left	p74_left	down	1	518	170	train	TRUE
491	492	trial	2	18	yes	0	left	p38	no	left	p38_left	down	1	577	170	train	TRUE
494	495	trial	2	19	no	1	left	p33	yes	right	p33_right	down	1	793	170	train	TRUE
497	498	trial	2	20	no	0	right	a72	yes	left	a72_left	up	1	530	170	train	TRUE
500	501	trial	2	21	no	1	left	p33	no	right	p33_right	down	1	622	170	train	TRUE
503	504	trial	2	22	no	1	right	a47	yes	left	a47_left	down	1	655	170	train	TRUE
506	507	trial	2	23	no	0	right	p32	yes	left	p32_left	down	1	489	170	train	TRUE
509	510	trial	2	24	yes	0	right	a47	no	right	a47_right	down	1	464	170	train	TRUE
512	513	trial	2	25	yes	0	left	p74	yes	left	p74_left	down	1	543	170	train	TRUE
515	516	trial	2	26	no	0	left	a72	no	right	a72_right	down	1	514	170	train	TRUE
518	519	trial	2	27	yes	0	left	a72	no	left	a72_left	down	1	512	170	train	TRUE
521	522	trial	2	28	yes	1	left	a14	yes	left	a14_left	down	1	427	170	train	TRUE
524	525	trial	2	29	yes	1	right	p20	yes	right	p20_right	down	1	373	170	train	TRUE
527	528	trial	2	30	yes	1	left	a30	no	left	a30_left	down	1	491	170	train	TRUE
530	531	trial	2	31	yes	1	left	p32	no	left	p32_left	up	1	795	170	train	TRUE
533	534	trial	2	32	no	1	left	a47	no	right	a47_right	up	1	817	170	train	TRUE
536	537	trial	2	33	yes	0	left	a9	yes	left	a9_left	down	1	489	170	train	TRUE
539	540	trial	2	34	no	1	left	a71	yes	right	a71_right	up	1	551	170	train	TRUE
542	543	trial	2	35	yes	0	left	p33	yes	left	p33_left	down	1	675	170	train	TRUE
545	546	trial	2	36	no	1	right	p11	yes	left	p11_left	up	1	592	170	train	TRUE
548	549	trial	2	37	yes	0	right	a9	no	right	a9_right	down	1	798	170	train	TRUE
551	552	trial	2	38	no	0	right	a72	no	left	a72_left	up	1	790	170	train	TRUE
554	555	trial	2	39	no	0	right	p38	yes	left	p38_left	up	1	465	170	train	TRUE
557	558	trial	2	40	no	0	right	p20	yes	left	p20_left	down	1	446	170	train	TRUE
560	561	trial	2	41	no	1	right	p32	no	left	p32_left	down	1	398	170	train	TRUE
563	564	trial	2	42	yes	1	right	a14	yes	right	a14_right	up	1	476	170	train	TRUE
566	567	trial	2	43	no	0	left	a47	no	right	a47_right	down	1	487	170	train	TRUE
569	570	trial	2	44	no	1	right	a72	no	left	a72_left	down	1	590	170	train	TRUE
572	573	trial	2	45	yes	0	right	a72	yes	right	a72_right	down	1	416	170	train	TRUE
575	576	trial	2	46	yes	0	left	a71	yes	left	a71_left	up	1	401	170	train	TRUE
578	579	trial	2	47	yes	0	right	a14	no	right	a14_right	up	1	436	170	train	TRUE
581	582	trial	2	48	no	0	left	p11	yes	right	p11_right	down	1	406	170	train	TRUE
584	585	trial	2	49	yes	1	left	a9	no	left	a9_left	down	1	514	170	train	TRUE
587	588	trial	2	50	no	0	right	a71	no	left	a71_left	down	1	417	170	train	TRUE
590	591	trial	2	51	yes	0	right	p32	no	right	p32_right	down	1	427	170	train	TRUE
593	594	trial	2	52	yes	1	left	p33	yes	left	p33_left	up	1	499	170	train	TRUE
596	597	trial	2	53	yes	0	right	p20	no	right	p20_right	down	1	432	170	train	TRUE
599	600	trial	2	54	no	0	right	p74	yes	left	p74_left	down	1	485	170	train	TRUE
602	603	trial	2	55	no	0	left	p11	no	right	p11_right	up	2	403	170	train	TRUE
606	607	trial	2	56	yes	1	right	p32	no	right	p32_right	up	1	483	170	train	TRUE
609	610	trial	2	57	no	1	right	a71	no	left	a71_left	down	1	509	170	train	TRUE
612	613	trial	2	58	no	1	left	a30	no	right	a30_right	up	1	669	170	train	TRUE
615	616	trial	2	59	no	1	left	a9	yes	right	a9_right	up	1	533	170	train	TRUE
618	619	trial	2	60	no	1	left	a9	no	right	a9_right	down	1	755	170	train	TRUE
621	622	trial	2	61	yes	0	right	a14	yes	right	a14_right	up	1	517	170	train	TRUE
624	625	trial	2	62	no	0	left	a30	yes	right	a30_right	down	1	446	170	train	TRUE
627	628	trial	2	63	yes	0	left	p74	no	left	p74_left	down	1	916	170	train	TRUE
630	631	trial	2	64	yes	1	right	a71	yes	right	a71_right	up	1	452	170	train	TRUE
633	634	trial	2	65	yes	0	left	a72	yes	left	a72_left	down	1	532	170	train	TRUE
636	637	trial	2	66	no	0	left	a72	yes	right	a72_right	up	1	499	170	train	TRUE
639	640	trial	2	67	no	0	left	a47	yes	right	a47_right	down	1	563	170	train	TRUE
642	643	trial	2	68	no	0	left	p32	yes	right	p32_right	down	1	515	170	train	TRUE
645	646	trial	2	69	yes	1	right	a71	no	right	a71_right	down	1	525	170	train	TRUE
648	649	trial	2	70	yes	0	right	p74	yes	right	p74_right	down	1	490	170	train	TRUE
651	652	trial	2	71	yes	0	left	p33	no	left	p33_left	up	1	638	170	train	TRUE
654	655	trial	2	72	yes	1	left	a72	no	left	a72_left	down	1	519	170	train	TRUE
657	658	trial	2	73	no	1	right	a9	yes	left	a9_left	down	1	507	170	train	TRUE
660	661	trial	2	74	no	0	left	p33	yes	right	p33_right	down	1	520	170	train	TRUE
663	664	trial	2	75	no	1	right	p32	yes	left	p32_left	down	1	464	170	train	TRUE
666	667	trial	2	76	yes	0	right	a30	no	right	a30_right	up	1	565	170	train	TRUE
669	670	trial	2	77	no	0	left	p33	no	right	p33_right	down	1	532	170	train	TRUE
672	673	trial	2	78	no	0	right	a9	no	left	a9_left	up	1	493	170	train	TRUE
675	676	trial	2	79	no	0	right	p33	yes	left	p33_left	up	1	549	170	train	TRUE
678	679	trial	2	80	yes	0	left	a14	yes	left	a14_left	up	1	601	170	train	TRUE
681	682	trial	2	81	yes	0	right	p38	yes	right	p38_right	up	1	551	170	train	TRUE
684	685	trial	2	82	no	0	left	p20	yes	right	p20_right	down	1	620	170	train	TRUE
687	688	trial	2	83	no	0	right	a47	no	left	a47_left	up	1	412	170	train	TRUE
690	691	trial	2	84	yes	1	left	a47	no	left	a47_left	down	1	792	170	train	TRUE
693	694	trial	2	85	no	1	right	p20	no	left	p20_left	up	1	482	170	train	TRUE
696	697	trial	2	86	no	1	left	p32	no	right	p32_right	up	1	776	170	train	TRUE
699	700	trial	2	87	yes	0	left	p11	no	left	p11_left	up	1	682	170	train	TRUE
702	703	trial	2	88	yes	0	right	a72	no	right	a72_right	up	1	546	170	train	TRUE
705	706	trial	2	89	yes	0	left	p32	yes	left	p32_left	down	1	715	170	train	TRUE
708	709	trial	2	90	yes	0	right	p38	no	right	p38_right	up	1	455	170	train	TRUE
711	712	trial	2	91	yes	0	right	p20	yes	right	p20_right	down	1	523	170	train	TRUE
714	715	trial	2	92	yes	1	left	p38	yes	left	p38_left	up	1	624	170	train	TRUE
717	718	trial	2	93	no	1	right	p20	yes	left	p20_left	down	1	524	170	train	TRUE
720	721	trial	2	94	no	1	right	a14	yes	left	a14_left	up	1	459	170	train	TRUE
723	724	trial	2	95	no	1	left	p38	no	right	p38_right	down	1	469	170	train	TRUE
730	731	trial	3	0	no	0	right	p32	no	left	p32_left	down	1	1416	170	train	TRUE
733	734	trial	3	1	no	0	left	p74	no	right	p74_right	down	1	597	170	train	TRUE
736	737	trial	3	2	no	1	left	p74	yes	right	p74_right	down	1	647	170	train	TRUE
739	740	trial	3	3	yes	0	right	a9	yes	right	a9_right	up	1	1052	170	train	TRUE
742	743	trial	3	4	yes	0	left	a30	yes	left	a30_left	down	1	522	170	train	TRUE
745	746	trial	3	5	yes	0	right	a47	yes	right	a47_right	up	1	431	170	train	TRUE
748	749	trial	3	6	no	0	left	a14	yes	right	a14_right	up	1	620	170	train	TRUE
751	752	trial	3	7	no	1	left	p11	yes	right	p11_right	down	1	686	170	train	TRUE
754	755	trial	3	8	yes	0	right	p33	yes	right	p33_right	down	1	527	170	train	TRUE
757	758	trial	3	9	yes	0	right	p74	no	right	p74_right	up	1	768	170	train	TRUE
760	761	trial	3	10	yes	0	left	a47	yes	left	a47_left	up	1	582	170	train	TRUE
763	764	trial	3	11	no	0	right	p74	no	left	p74_left	up	1	446	170	train	TRUE
766	767	trial	3	12	no	0	left	p38	no	right	p38_right	up	1	536	170	train	TRUE
769	770	trial	3	13	yes	1	right	a47	yes	right	a47_right	down	1	522	170	train	TRUE
772	773	trial	3	14	yes	0	left	a47	no	left	a47_left	down	1	769	170	train	TRUE
775	776	trial	3	15	no	1	right	a30	yes	left	a30_left	up	1	490	170	train	TRUE
778	779	trial	3	16	no	0	left	p74	yes	right	p74_right	up	1	623	170	train	TRUE
781	782	trial	3	17	no	1	left	a72	no	right	a72_right	up	1	486	170	train	TRUE
784	785	trial	3	18	no	1	right	a47	no	left	a47_left	up	1	583	170	train	TRUE
787	788	trial	3	19	yes	1	left	p32	yes	left	p32_left	down	1	598	170	train	TRUE
790	791	trial	3	20	no	0	left	p38	yes	right	p38_right	up	1	438	170	train	TRUE
793	794	trial	3	21	no	1	right	a14	no	left	a14_left	down	1	832	170	train	TRUE
796	797	trial	3	22	no	1	left	p11	no	right	p11_right	down	1	633	170	train	TRUE
799	800	trial	3	23	no	0	right	a30	no	left	a30_left	up	1	630	170	train	TRUE
802	803	trial	3	24	yes	1	right	a72	no	right	a72_right	up	1	594	170	train	TRUE
805	806	trial	3	25	yes	1	left	p11	yes	left	p11_left	up	1	544	170	train	TRUE
808	809	trial	3	26	yes	1	right	a9	no	right	a9_right	up	1	395	170	train	TRUE
811	812	trial	3	27	no	1	left	a47	yes	right	a47_right	down	1	531	170	train	TRUE
814	815	trial	3	28	yes	1	left	a9	yes	left	a9_left	up	1	626	170	train	TRUE
817	818	trial	3	29	yes	1	right	p38	no	right	p38_right	down	2	18	170	train	TRUE
821	822	trial	3	30	no	0	left	a30	no	right	a30_right	up	1	573	170	train	TRUE
824	825	trial	3	31	yes	0	left	p38	yes	left	p38_left	down	1	656	170	train	TRUE
827	828	trial	3	32	yes	1	right	p11	no	right	p11_right	down	1	632	170	train	TRUE
830	831	trial	3	33	no	0	right	p11	no	left	p11_left	down	1	771	170	train	TRUE
833	834	trial	3	34	no	0	right	p38	no	left	p38_left	up	1	427	170	train	TRUE
836	837	trial	3	35	yes	1	left	p11	no	left	p11_left	down	1	569	170	train	TRUE
839	840	trial	3	36	yes	0	right	p33	no	right	p33_right	up	1	409	170	train	TRUE
842	843	trial	3	37	yes	1	left	p74	no	left	p74_left	down	1	570	170	train	TRUE
845	846	trial	3	38	no	1	left	p74	no	right	p74_right	up	1	600	170	train	TRUE
848	849	trial	3	39	no	1	right	p74	yes	left	p74_left	up	1	659	170	train	TRUE
851	852	trial	3	40	no	1	right	p38	yes	left	p38_left	down	1	589	170	train	TRUE
854	855	trial	3	41	no	0	right	p33	no	left	p33_left	up	1	504	170	train	TRUE
857	858	trial	3	42	yes	0	left	p20	yes	left	p20_left	up	1	605	170	train	TRUE
860	861	trial	3	43	yes	1	left	p33	no	left	p33_left	down	1	535	170	train	TRUE
863	864	trial	3	44	no	1	left	p20	no	right	p20_right	up	1	509	170	train	TRUE
866	867	trial	3	45	yes	1	right	a30	no	right	a30_right	up	1	547	170	train	TRUE
869	870	trial	3	46	no	0	right	a9	yes	left	a9_left	up	1	485	170	train	TRUE
872	873	trial	3	47	no	0	right	a71	yes	left	a71_left	down	1	563	170	train	TRUE
875	876	trial	3	48	yes	0	right	p11	yes	right	p11_right	up	1	453	170	train	TRUE
878	879	trial	3	49	no	1	left	a30	yes	right	a30_right	down	1	582	170	train	TRUE
881	882	trial	3	50	no	1	left	p20	yes	right	p20_right	up	1	523	170	train	TRUE
884	885	trial	3	51	yes	1	left	p74	yes	left	p74_left	down	1	437	170	train	TRUE
887	888	trial	3	52	no	1	right	p33	yes	left	p33_left	down	1	572	170	train	TRUE
890	891	trial	3	53	yes	1	right	a14	no	right	a14_right	up	1	799	170	train	TRUE
893	894	trial	3	54	no	1	left	p32	yes	right	p32_right	up	1	535	170	train	TRUE
896	897	trial	3	55	yes	1	right	p74	yes	right	p74_right	up	1	562	170	train	TRUE
899	900	trial	3	56	yes	0	left	p32	no	left	p32_left	up	1	508	170	train	TRUE
902	903	trial	3	57	yes	1	left	p38	no	left	p38_left	up	1	574	170	train	TRUE
905	906	trial	3	58	yes	0	right	a71	no	right	a71_right	up	1	759	170	train	TRUE
908	909	trial	3	59	yes	1	right	p20	no	right	p20_right	down	1	736	170	train	TRUE
911	912	trial	3	60	no	1	left	a72	yes	right	a72_right	up	1	1252	170	train	TRUE
914	915	trial	3	61	no	1	right	a30	no	left	a30_left	down	1	562	170	train	TRUE
917	918	trial	3	62	yes	1	right	a47	no	right	a47_right	up	1	518	170	train	TRUE
920	921	trial	3	63	no	1	left	a14	no	right	a14_right	up	1	637	170	train	TRUE
923	924	trial	3	64	yes	1	right	a72	yes	right	a72_right	down	1	566	170	train	TRUE
926	927	trial	3	65	yes	0	left	a9	no	left	a9_left	up	1	654	170	train	TRUE
929	930	trial	3	66	yes	1	right	a9	yes	right	a9_right	up	1	514	170	train	TRUE
932	933	trial	3	67	no	1	right	a72	yes	left	a72_left	down	1	430	170	train	TRUE
935	936	trial	3	68	no	1	right	a9	no	left	a9_left	up	1	489	170	train	TRUE
938	939	trial	3	69	yes	0	left	a71	no	left	a71_left	up	1	735	170	train	TRUE
941	942	trial	3	70	no	1	right	a71	yes	left	a71_left	down	1	540	170	train	TRUE
944	945	trial	3	71	no	0	left	a9	yes	right	a9_right	down	1	591	170	train	TRUE
947	948	trial	3	72	no	0	right	a30	yes	left	a30_left	up	1	544	170	train	TRUE
950	951	trial	3	73	yes	1	right	a30	yes	right	a30_right	down	1	632	170	train	TRUE
953	954	trial	3	74	no	0	left	a14	no	right	a14_right	up	1	455	170	train	TRUE
956	957	trial	3	75	yes	1	left	a71	no	left	a71_left	down	1	1415	170	train	TRUE
959	960	trial	3	76	no	0	right	p11	yes	left	p11_left	down	1	685	170	train	TRUE
962	963	trial	3	77	yes	0	left	p11	yes	left	p11_left	down	1	587	170	train	TRUE
965	966	trial	3	78	no	1	right	p11	no	left	p11_left	down	1	500	170	train	TRUE
968	969	trial	3	79	no	0	left	p20	no	right	p20_right	up	1	590	170	train	TRUE
971	972	trial	3	80	no	0	right	a14	no	left	a14_left	down	1	798	170	train	TRUE
974	975	trial	3	81	yes	1	left	a72	yes	left	a72_left	up	1	467	170	train	TRUE
977	978	trial	3	82	yes	0	right	a71	yes	right	a71_right	down	1	560	170	train	TRUE
980	981	trial	3	83	no	1	left	a14	yes	right	a14_right	up	1	569	170	train	TRUE
983	984	trial	3	84	yes	0	left	a14	no	left	a14_left	up	1	663	170	train	TRUE
986	987	trial	3	85	yes	1	right	p32	yes	right	p32_right	down	1	539	170	train	TRUE
989	990	trial	3	86	yes	1	left	p20	no	left	p20_left	up	1	492	170	train	TRUE
992	993	trial	3	87	no	0	right	a14	yes	left	a14_left	up	1	447	170	train	TRUE
995	996	trial	3	88	no	0	left	p32	no	right	p32_right	down	1	558	170	train	TRUE
998	999	trial	3	89	yes	1	left	a71	yes	left	a71_left	up	1	781	170	train	TRUE
1001	1002	trial	3	90	yes	1	right	p38	yes	right	p38_right	up	1	503	170	train	TRUE
1004	1005	trial	3	91	yes	1	right	p11	yes	right	p11_right	up	1	578	170	train	TRUE
1007	1008	trial	3	92	yes	0	right	p32	yes	right	p32_right	down	1	539	170	train	TRUE
1010	1011	trial	3	93	yes	0	right	p11	no	right	p11_right	up	1	677	170	train	TRUE
1013	1014	trial	3	94	no	0	right	a47	yes	left	a47_left	down	1	498	170	train	TRUE
1016	1017	trial	3	95	no	0	left	a71	no	right	a71_right	down	1	698	170	train	TRUE
14	15	trial	0	0	yes	0	left	practice	yes	left	practice_left	down	1	479	171	practice	TRUE
17	18	trial	0	1	yes	0	right	practice	yes	right	practice_right	up	1	425	171	practice	TRUE
20	21	trial	0	2	no	0	right	practice	no	left	practice_left	down	1	460	171	practice	TRUE
23	24	trial	0	3	no	0	left	practice	yes	right	practice_right	up	1	579	171	practice	TRUE
26	27	trial	0	4	yes	0	right	practice	no	right	practice_right	up	1	555	171	practice	TRUE
29	30	trial	0	5	yes	0	left	practice	no	left	practice_left	down	1	518	171	practice	TRUE
32	33	trial	0	6	no	0	left	practice	no	right	practice_right	up	1	655	171	practice	TRUE
35	36	trial	0	7	no	0	right	practice	yes	left	practice_left	down	1	440	171	practice	TRUE
42	43	trial	1	0	yes	0	left	p16	no	left	p16_left	down	1	557	171	assess	TRUE
45	46	trial	1	1	yes	1	right	a70	yes	right	a70_right	down	1	433	171	assess	TRUE
48	49	trial	1	2	yes	1	right	a17	no	right	a17_right	up	1	481	171	assess	TRUE
51	52	trial	1	3	no	1	left	a65	yes	right	a65_right	up	1	558	171	assess	TRUE
54	55	trial	1	4	no	1	right	a70	yes	left	a70_left	down	1	429	171	assess	TRUE
57	58	trial	1	5	yes	1	left	a70	yes	left	a70_left	down	1	449	171	assess	TRUE
60	61	trial	1	6	yes	0	left	a70	no	left	a70_left	up	1	673	171	assess	TRUE
63	64	trial	1	7	no	1	right	p34	no	left	p34_left	up	1	485	171	assess	TRUE
66	67	trial	1	8	no	0	right	p16	yes	left	p16_left	down	1	637	171	assess	TRUE
69	70	trial	1	9	yes	1	right	p57	yes	right	p57_right	up	1	541	171	assess	TRUE
72	73	trial	1	10	no	1	right	a17	no	left	a17_left	down	1	573	171	assess	TRUE
75	76	trial	1	11	no	0	right	a17	no	left	a17_left	down	1	483	171	assess	TRUE
78	79	trial	1	12	yes	1	right	p31	yes	right	p31_right	down	1	818	171	assess	TRUE
81	82	trial	1	13	no	0	right	p31	no	left	p31_left	down	1	527	171	assess	TRUE
84	85	trial	1	14	yes	0	right	p57	no	right	p57_right	up	1	732	171	assess	TRUE
87	88	trial	1	15	no	1	left	p31	yes	right	p31_right	up	1	508	171	assess	TRUE
90	91	trial	1	16	no	0	left	p31	yes	right	p31_right	up	1	531	171	assess	TRUE
93	94	trial	1	17	yes	1	right	a65	no	right	a65_right	up	1	539	171	assess	TRUE
96	97	trial	1	18	yes	1	left	p31	yes	left	p31_left	up	2	567	171	assess	TRUE
100	101	trial	1	19	yes	1	left	a17	yes	left	a17_left	up	1	509	171	assess	TRUE
103	104	trial	1	20	no	1	right	p31	yes	left	p31_left	up	1	445	171	assess	TRUE
106	107	trial	1	21	no	1	left	p16	yes	right	p16_right	up	1	539	171	assess	TRUE
109	110	trial	1	22	yes	0	left	a65	yes	left	a65_left	up	1	437	171	assess	TRUE
112	113	trial	1	23	yes	1	right	a70	no	right	a70_right	up	1	458	171	assess	TRUE
115	116	trial	1	24	no	0	right	a70	yes	left	a70_left	down	1	929	171	assess	TRUE
118	119	trial	1	25	no	0	right	a65	no	left	a65_left	up	1	548	171	assess	TRUE
121	122	trial	1	26	yes	1	left	p34	yes	left	p34_left	up	1	556	171	assess	TRUE
124	125	trial	1	27	no	1	left	a70	yes	right	a70_right	up	1	521	171	assess	TRUE
127	128	trial	1	28	yes	0	left	p34	yes	left	p34_left	up	1	647	171	assess	TRUE
130	131	trial	1	29	no	0	left	a65	no	right	a65_right	up	1	650	171	assess	TRUE
133	134	trial	1	30	yes	1	right	a61	no	right	a61_right	down	1	583	171	assess	TRUE
136	137	trial	1	31	no	1	left	p57	yes	right	p57_right	down	1	614	171	assess	TRUE
139	140	trial	1	32	yes	1	left	p16	yes	left	p16_left	up	1	528	171	assess	TRUE
142	143	trial	1	33	yes	0	left	a70	yes	left	a70_left	up	1	600	171	assess	TRUE
145	146	trial	1	34	yes	1	left	a61	no	left	a61_left	up	1	510	171	assess	TRUE
148	149	trial	1	35	no	1	right	a61	yes	left	a61_left	down	1	516	171	assess	TRUE
151	152	trial	1	36	no	0	left	p31	no	right	p31_right	down	1	541	171	assess	TRUE
154	155	trial	1	37	no	1	left	p34	yes	right	p34_right	up	1	499	171	assess	TRUE
157	158	trial	1	38	no	0	left	p57	no	right	p57_right	up	1	543	171	assess	TRUE
160	161	trial	1	39	yes	1	right	p57	no	right	p57_right	down	1	691	171	assess	TRUE
163	164	trial	1	40	yes	1	right	p16	yes	right	p16_right	down	1	460	171	assess	TRUE
166	167	trial	1	41	yes	0	left	a61	no	left	a61_left	down	1	770	171	assess	TRUE
169	170	trial	1	42	no	0	right	p34	no	left	p34_left	down	1	482	171	assess	TRUE
172	173	trial	1	43	yes	0	right	p16	no	right	p16_right	down	1	522	171	assess	TRUE
175	176	trial	1	44	no	0	left	a70	no	right	a70_right	down	1	567	171	assess	TRUE
178	179	trial	1	45	no	0	right	p34	yes	left	p34_left	up	1	637	171	assess	TRUE
181	182	trial	1	46	no	1	left	a17	no	right	a17_right	down	1	558	171	assess	TRUE
184	185	trial	1	47	no	0	left	a17	no	right	a17_right	up	1	601	171	assess	TRUE
187	188	trial	1	48	no	0	left	a17	yes	right	a17_right	down	1	684	171	assess	TRUE
190	191	trial	1	49	yes	0	left	p31	no	left	p31_left	down	1	557	171	assess	TRUE
193	194	trial	1	50	yes	0	right	a17	yes	right	a17_right	down	1	450	171	assess	TRUE
196	197	trial	1	51	yes	0	right	p31	no	right	p31_right	up	1	891	171	assess	TRUE
199	200	trial	1	52	yes	0	left	a17	no	left	a17_left	down	1	808	171	assess	TRUE
202	203	trial	1	53	yes	1	left	a70	no	left	a70_left	up	1	639	171	assess	TRUE
205	206	trial	1	54	yes	0	left	a65	no	left	a65_left	up	1	609	171	assess	TRUE
208	209	trial	1	55	no	0	left	p34	no	right	p34_right	down	1	586	171	assess	TRUE
211	212	trial	1	56	no	1	right	p31	no	left	p31_left	down	1	501	171	assess	TRUE
214	215	trial	1	57	no	1	right	p57	no	left	p57_left	up	1	439	171	assess	TRUE
217	218	trial	1	58	no	1	left	a65	no	right	a65_right	down	1	536	171	assess	TRUE
220	221	trial	1	59	yes	1	right	p31	no	right	p31_right	down	1	564	171	assess	TRUE
223	224	trial	1	60	no	1	left	p34	no	right	p34_right	up	1	773	171	assess	TRUE
226	227	trial	1	61	no	0	right	a65	yes	left	a65_left	up	1	668	171	assess	TRUE
229	230	trial	1	62	yes	1	left	p31	no	left	p31_left	up	1	570	171	assess	TRUE
232	233	trial	1	63	no	1	right	p16	no	left	p16_left	up	1	464	171	assess	TRUE
235	236	trial	1	64	no	1	right	a61	no	left	a61_left	up	1	738	171	assess	TRUE
238	239	trial	1	65	yes	0	left	p31	yes	left	p31_left	down	1	694	171	assess	TRUE
241	242	trial	1	66	no	1	left	a61	yes	right	a61_right	down	1	468	171	assess	TRUE
244	245	trial	1	67	no	0	left	a61	yes	right	a61_right	up	1	525	171	assess	TRUE
247	248	trial	1	68	yes	1	right	a65	yes	right	a65_right	down	1	473	171	assess	TRUE
250	251	trial	1	69	yes	0	right	a61	no	right	a61_right	up	1	590	171	assess	TRUE
253	254	trial	1	70	yes	0	left	p57	no	left	p57_left	down	1	528	171	assess	TRUE
256	257	trial	1	71	yes	1	left	a65	no	left	a65_left	up	1	619	171	assess	TRUE
259	260	trial	1	72	no	0	left	p16	yes	right	p16_right	down	1	539	171	assess	TRUE
262	263	trial	1	73	yes	0	right	a65	yes	right	a65_right	down	1	513	171	assess	TRUE
265	266	trial	1	74	no	1	right	p16	yes	left	p16_left	down	1	548	171	assess	TRUE
268	269	trial	1	75	no	0	right	p57	no	left	p57_left	up	1	466	171	assess	TRUE
271	272	trial	1	76	no	0	right	p57	yes	left	p57_left	down	1	970	171	assess	TRUE
274	275	trial	1	77	no	1	right	a65	yes	left	a65_left	down	2	1549	171	assess	TRUE
278	279	trial	1	78	yes	0	right	p34	no	right	p34_right	up	3	NA	171	assess	TRUE
282	283	trial	1	79	no	0	right	a17	yes	left	a17_left	down	1	575	171	assess	TRUE
285	286	trial	1	80	no	1	left	a61	no	right	a61_right	down	1	503	171	assess	TRUE
288	289	trial	1	81	no	1	left	a17	yes	right	a17_right	down	1	481	171	assess	TRUE
291	292	trial	1	82	yes	0	right	a70	yes	right	a70_right	up	1	525	171	assess	TRUE
294	295	trial	1	83	yes	0	right	a70	no	right	a70_right	down	1	562	171	assess	TRUE
297	298	trial	1	84	yes	1	left	a61	yes	left	a61_left	down	1	763	171	assess	TRUE
300	301	trial	1	85	no	0	right	a61	yes	left	a61_left	down	1	492	171	assess	TRUE
303	304	trial	1	86	yes	0	right	p16	yes	right	p16_right	down	1	468	171	assess	TRUE
306	307	trial	1	87	yes	1	right	p16	no	right	p16_right	down	1	459	171	assess	TRUE
309	310	trial	1	88	no	1	left	p16	no	right	p16_right	down	1	448	171	assess	TRUE
312	313	trial	1	89	no	0	right	a70	no	left	a70_left	down	1	498	171	assess	TRUE
315	316	trial	1	90	yes	0	right	a17	no	right	a17_right	up	1	471	171	assess	TRUE
318	319	trial	1	91	no	1	left	p57	no	right	p57_right	up	1	697	171	assess	TRUE
321	322	trial	1	92	yes	0	right	a65	no	right	a65_right	down	1	687	171	assess	TRUE
324	325	trial	1	93	no	0	left	a70	yes	right	a70_right	up	1	558	171	assess	TRUE
327	328	trial	1	94	yes	1	right	p34	yes	right	p34_right	up	1	379	171	assess	TRUE
330	331	trial	1	95	yes	1	left	p57	yes	left	p57_left	up	1	512	171	assess	TRUE
333	334	trial	1	96	no	0	left	p34	yes	right	p34_right	down	1	579	171	assess	TRUE
336	337	trial	1	97	no	1	left	p31	no	right	p31_right	up	1	460	171	assess	TRUE
339	340	trial	1	98	no	0	left	p57	yes	right	p57_right	down	1	473	171	assess	TRUE
342	343	trial	1	99	no	1	right	a17	yes	left	a17_left	up	1	414	171	assess	TRUE
345	346	trial	1	100	yes	0	left	a17	yes	left	a17_left	down	1	547	171	assess	TRUE
348	349	trial	1	101	no	0	right	a61	no	left	a61_left	up	1	406	171	assess	TRUE
351	352	trial	1	102	no	0	right	p31	yes	left	p31_left	up	1	406	171	assess	TRUE
354	355	trial	1	103	no	1	left	a70	no	right	a70_right	down	1	544	171	assess	TRUE
357	358	trial	1	104	no	1	right	a65	no	left	a65_left	up	1	427	171	assess	TRUE
360	361	trial	1	105	yes	0	right	p31	yes	right	p31_right	up	1	585	171	assess	TRUE
363	364	trial	1	106	yes	0	left	p57	yes	left	p57_left	up	1	710	171	assess	TRUE
366	367	trial	1	107	yes	0	right	p34	yes	right	p34_right	down	1	552	171	assess	TRUE
369	370	trial	1	108	yes	0	right	p57	yes	right	p57_right	up	1	379	171	assess	TRUE
372	373	trial	1	109	yes	1	left	p34	no	left	p34_left	down	1	500	171	assess	TRUE
375	376	trial	1	110	yes	1	left	p57	no	left	p57_left	down	1	592	171	assess	TRUE
378	379	trial	1	111	no	1	right	a70	no	left	a70_left	down	1	524	171	assess	TRUE
381	382	trial	1	112	yes	1	right	p34	no	right	p34_right	down	1	577	171	assess	TRUE
384	385	trial	1	113	yes	0	left	p16	yes	left	p16_left	up	1	670	171	assess	TRUE
387	388	trial	1	114	no	0	left	a65	yes	right	a65_right	up	1	1609	171	assess	TRUE
390	391	trial	1	115	yes	0	right	a61	yes	right	a61_right	down	1	560	171	assess	TRUE
393	394	trial	1	116	yes	1	left	a65	yes	left	a65_left	up	1	419	171	assess	TRUE
396	397	trial	1	117	no	1	right	p57	yes	left	p57_left	up	1	620	171	assess	TRUE
399	400	trial	1	118	no	1	right	p34	yes	left	p34_left	up	1	493	171	assess	TRUE
402	403	trial	1	119	yes	1	left	p16	no	left	p16_left	down	1	689	171	assess	TRUE
405	406	trial	1	120	yes	0	left	a61	yes	left	a61_left	down	1	526	171	assess	TRUE
408	409	trial	1	121	yes	1	right	a17	yes	right	a17_right	down	1	478	171	assess	TRUE
411	412	trial	1	122	yes	0	left	p34	no	left	p34_left	up	2	526	171	assess	TRUE
415	416	trial	1	123	no	0	right	p16	no	left	p16_left	up	1	689	171	assess	TRUE
418	419	trial	1	124	no	0	left	a61	no	right	a61_right	down	1	679	171	assess	TRUE
421	422	trial	1	125	no	0	left	p16	no	right	p16_right	up	1	627	171	assess	TRUE
424	425	trial	1	126	yes	1	right	a61	yes	right	a61_right	down	1	634	171	assess	TRUE
427	428	trial	1	127	yes	1	left	a17	no	left	a17_left	up	1	652	171	assess	TRUE
434	435	trial	2	0	yes	1	right	a27	no	right	a27_right	down	1	495	171	train	TRUE
437	438	trial	2	1	yes	1	left	a33	yes	left	a33_left	down	1	707	171	train	TRUE
440	441	trial	2	2	no	1	right	p42	no	left	p42_left	up	1	787	171	train	TRUE
443	444	trial	2	3	no	0	right	a44	no	left	a44_left	up	1	483	171	train	TRUE
446	447	trial	2	4	yes	1	right	a48	no	right	a48_right	down	1	480	171	train	TRUE
449	450	trial	2	5	no	1	right	p1	yes	left	p1_left	down	1	498	171	train	TRUE
452	453	trial	2	6	yes	1	right	a69	yes	right	a69_right	up	1	601	171	train	TRUE
455	456	trial	2	7	no	0	right	p42	no	left	p42_left	down	1	509	171	train	TRUE
458	459	trial	2	8	no	0	left	a69	no	right	a69_right	up	1	707	171	train	TRUE
461	462	trial	2	9	no	1	right	p2	no	left	p2_left	down	1	628	171	train	TRUE
464	465	trial	2	10	no	0	left	p3	yes	right	p3_right	down	1	443	171	train	TRUE
467	468	trial	2	11	no	1	right	a48	yes	left	a48_left	down	1	416	171	train	TRUE
470	471	trial	2	12	yes	1	right	p42	no	right	p42_right	up	1	448	171	train	TRUE
473	474	trial	2	13	no	1	left	a11	no	right	a11_right	down	1	553	171	train	TRUE
476	477	trial	2	14	no	1	left	p42	no	right	p42_right	down	1	571	171	train	TRUE
479	480	trial	2	15	yes	0	left	p42	no	left	p42_left	up	1	753	171	train	TRUE
482	483	trial	2	16	no	1	right	p3	yes	left	p3_left	up	1	716	171	train	TRUE
485	486	trial	2	17	yes	0	left	p2	no	left	p2_left	down	1	479	171	train	TRUE
488	489	trial	2	18	no	0	left	p1	no	right	p1_right	up	1	499	171	train	TRUE
491	492	trial	2	19	yes	1	right	a33	no	right	a33_right	down	1	478	171	train	TRUE
494	495	trial	2	20	no	1	right	a48	no	left	a48_left	down	1	568	171	train	TRUE
497	498	trial	2	21	no	1	right	p42	yes	left	p42_left	up	1	420	171	train	TRUE
500	501	trial	2	22	yes	0	right	a44	yes	right	a44_right	down	1	430	171	train	TRUE
503	504	trial	2	23	no	0	right	p42	yes	left	p42_left	down	1	449	171	train	TRUE
506	507	trial	2	24	yes	1	left	a69	yes	left	a69_left	up	1	757	171	train	TRUE
509	510	trial	2	25	no	1	left	a27	yes	right	a27_right	up	1	560	171	train	TRUE
512	513	trial	2	26	yes	1	left	a11	yes	left	a11_left	up	1	550	171	train	TRUE
515	516	trial	2	27	no	1	right	p5	yes	left	p5_left	down	1	599	171	train	TRUE
518	519	trial	2	28	yes	0	left	a48	yes	left	a48_left	down	2	604	171	train	TRUE
522	523	trial	2	29	no	0	right	a69	no	left	a69_left	down	1	591	171	train	TRUE
525	526	trial	2	30	yes	1	right	p1	no	right	p1_right	down	1	502	171	train	TRUE
528	529	trial	2	31	no	0	left	p42	yes	right	p42_right	up	1	702	171	train	TRUE
531	532	trial	2	32	no	0	right	a33	no	left	a33_left	down	1	537	171	train	TRUE
534	535	trial	2	33	yes	1	right	p65	no	right	p65_right	up	1	527	171	train	TRUE
537	538	trial	2	34	yes	0	right	p3	no	right	p3_right	down	1	524	171	train	TRUE
540	541	trial	2	35	yes	0	right	a33	no	right	a33_right	down	1	561	171	train	TRUE
543	544	trial	2	36	no	1	right	a69	no	left	a69_left	down	1	682	171	train	TRUE
546	547	trial	2	37	yes	0	left	a11	no	left	a11_left	down	1	596	171	train	TRUE
549	550	trial	2	38	yes	0	left	a33	yes	left	a33_left	up	1	572	171	train	TRUE
552	553	trial	2	39	no	0	right	p5	yes	left	p5_left	down	1	483	171	train	TRUE
555	556	trial	2	40	no	1	left	p65	yes	right	p65_right	down	1	658	171	train	TRUE
558	559	trial	2	41	no	0	left	p65	yes	right	p65_right	down	1	628	171	train	TRUE
561	562	trial	2	42	yes	0	left	a69	yes	left	a69_left	up	1	590	171	train	TRUE
564	565	trial	2	43	no	0	right	p1	yes	left	p1_left	up	1	590	171	train	TRUE
567	568	trial	2	44	no	1	right	a44	no	left	a44_left	up	1	682	171	train	TRUE
570	571	trial	2	45	no	0	left	p42	no	right	p42_right	down	1	588	171	train	TRUE
573	574	trial	2	46	no	1	right	a33	no	left	a33_left	down	1	556	171	train	TRUE
576	577	trial	2	47	no	0	left	p1	yes	right	p1_right	up	1	663	171	train	TRUE
579	580	trial	2	48	yes	0	left	p2	yes	left	p2_left	up	1	627	171	train	TRUE
582	583	trial	2	49	no	1	left	p3	no	right	p3_right	down	1	584	171	train	TRUE
585	586	trial	2	50	yes	1	right	p5	no	right	p5_right	up	1	629	171	train	TRUE
588	589	trial	2	51	yes	1	right	p2	yes	right	p2_right	up	1	469	171	train	TRUE
591	592	trial	2	52	no	0	left	a33	no	right	a33_right	down	1	666	171	train	TRUE
594	595	trial	2	53	yes	1	left	p1	yes	left	p1_left	up	1	699	171	train	TRUE
597	598	trial	2	54	no	1	right	a27	no	left	a27_left	up	1	515	171	train	TRUE
600	601	trial	2	55	yes	1	left	a27	no	left	a27_left	down	1	589	171	train	TRUE
603	604	trial	2	56	yes	0	left	p5	yes	left	p5_left	up	1	835	171	train	TRUE
606	607	trial	2	57	no	1	right	a69	yes	left	a69_left	down	1	539	171	train	TRUE
609	610	trial	2	58	yes	1	right	a27	yes	right	a27_right	down	1	502	171	train	TRUE
612	613	trial	2	59	no	1	left	p2	yes	right	p2_right	up	1	680	171	train	TRUE
615	616	trial	2	60	yes	0	left	a48	no	left	a48_left	up	1	756	171	train	TRUE
618	619	trial	2	61	yes	1	left	a11	no	left	a11_left	up	1	603	171	train	TRUE
621	622	trial	2	62	no	0	left	p5	no	right	p5_right	up	1	449	171	train	TRUE
624	625	trial	2	63	no	1	right	p65	yes	left	p65_left	down	1	500	171	train	TRUE
627	628	trial	2	64	yes	1	right	p5	yes	right	p5_right	down	1	484	171	train	TRUE
630	631	trial	2	65	no	0	right	p65	no	left	p65_left	up	1	493	171	train	TRUE
633	634	trial	2	66	yes	1	left	a69	no	left	a69_left	down	2	500	171	train	TRUE
637	638	trial	2	67	yes	0	left	a69	no	left	a69_left	down	1	622	171	train	TRUE
640	641	trial	2	68	no	0	right	a48	no	left	a48_left	up	1	520	171	train	TRUE
643	644	trial	2	69	yes	1	left	p42	no	left	p42_left	up	1	558	171	train	TRUE
646	647	trial	2	70	yes	0	right	p1	yes	right	p1_right	down	1	667	171	train	TRUE
649	650	trial	2	71	no	0	left	a44	no	right	a44_right	down	1	601	171	train	TRUE
652	653	trial	2	72	yes	0	left	p65	no	left	p65_left	down	1	627	171	train	TRUE
655	656	trial	2	73	yes	1	left	a48	yes	left	a48_left	up	1	820	171	train	TRUE
658	659	trial	2	74	no	0	left	a48	yes	right	a48_right	up	1	616	171	train	TRUE
661	662	trial	2	75	yes	1	right	a69	no	right	a69_right	up	1	725	171	train	TRUE
664	665	trial	2	76	no	1	left	p42	yes	right	p42_right	up	1	529	171	train	TRUE
667	668	trial	2	77	yes	0	right	p2	no	right	p2_right	down	1	516	171	train	TRUE
670	671	trial	2	78	no	0	right	a11	yes	left	a11_left	down	1	495	171	train	TRUE
673	674	trial	2	79	yes	1	left	p1	no	left	p1_left	up	1	693	171	train	TRUE
676	677	trial	2	80	yes	0	left	a33	no	left	a33_left	down	1	617	171	train	TRUE
679	680	trial	2	81	yes	0	left	p1	yes	left	p1_left	up	1	702	171	train	TRUE
682	683	trial	2	82	yes	1	left	p3	no	left	p3_left	up	1	516	171	train	TRUE
685	686	trial	2	83	yes	0	right	a69	no	right	a69_right	down	1	481	171	train	TRUE
688	689	trial	2	84	yes	1	left	p65	no	left	p65_left	up	1	710	171	train	TRUE
691	692	trial	2	85	no	1	left	a48	no	right	a48_right	up	1	845	171	train	TRUE
694	695	trial	2	86	yes	1	left	p3	yes	left	p3_left	up	1	816	171	train	TRUE
697	698	trial	2	87	yes	0	right	a48	no	right	a48_right	up	1	2758	171	train	TRUE
700	701	trial	2	88	no	0	left	p2	no	right	p2_right	down	1	649	171	train	TRUE
703	704	trial	2	89	yes	0	right	a44	no	right	a44_right	up	1	508	171	train	TRUE
706	707	trial	2	90	yes	1	right	a44	yes	right	a44_right	down	1	513	171	train	TRUE
709	710	trial	2	91	yes	1	left	p2	no	left	p2_left	up	1	715	171	train	TRUE
712	713	trial	2	92	yes	1	left	a44	yes	left	a44_left	up	1	598	171	train	TRUE
715	716	trial	2	93	no	0	right	a27	no	left	a27_left	down	1	550	171	train	TRUE
718	719	trial	2	94	yes	0	right	p65	yes	right	p65_right	up	1	399	171	train	TRUE
721	722	trial	2	95	yes	1	left	p2	yes	left	p2_left	down	1	531	171	train	TRUE
728	729	trial	3	0	yes	0	right	p65	no	right	p65_right	down	1	738	171	train	TRUE
731	732	trial	3	1	yes	0	left	p1	no	left	p1_left	up	1	599	171	train	TRUE
734	735	trial	3	2	yes	1	right	a11	yes	right	a11_right	up	1	486	171	train	TRUE
737	738	trial	3	3	yes	0	right	p1	no	right	p1_right	up	1	499	171	train	TRUE
740	741	trial	3	4	no	1	left	p1	yes	right	p1_right	up	1	586	171	train	TRUE
743	744	trial	3	5	no	1	right	a44	yes	left	a44_left	down	1	466	171	train	TRUE
746	747	trial	3	6	no	1	left	a44	yes	right	a44_right	up	1	532	171	train	TRUE
749	750	trial	3	7	no	0	right	a27	yes	left	a27_left	down	1	458	171	train	TRUE
752	753	trial	3	8	yes	0	right	a27	no	right	a27_right	down	1	844	171	train	TRUE
755	756	trial	3	9	no	0	right	p2	no	left	p2_left	up	1	616	171	train	TRUE
758	759	trial	3	10	yes	0	right	a33	yes	right	a33_right	down	1	462	171	train	TRUE
761	762	trial	3	11	yes	1	right	a33	yes	right	a33_right	down	1	583	171	train	TRUE
764	765	trial	3	12	no	1	left	a11	yes	right	a11_right	down	1	467	171	train	TRUE
767	768	trial	3	13	yes	1	left	p5	no	left	p5_left	down	1	697	171	train	TRUE
770	771	trial	3	14	no	0	left	a48	no	right	a48_right	up	1	675	171	train	TRUE
773	774	trial	3	15	no	1	left	a33	no	right	a33_right	down	1	546	171	train	TRUE
776	777	trial	3	16	yes	1	right	a11	no	right	a11_right	down	1	587	171	train	TRUE
779	780	trial	3	17	no	0	left	a27	yes	right	a27_right	up	1	713	171	train	TRUE
782	783	trial	3	18	yes	0	left	p42	yes	left	p42_left	down	1	704	171	train	TRUE
785	786	trial	3	19	no	0	right	a11	no	left	a11_left	down	1	2124	171	train	TRUE
788	789	trial	3	20	no	1	right	a27	yes	left	a27_left	down	1	531	171	train	TRUE
791	792	trial	3	21	yes	1	left	p65	yes	left	p65_left	up	1	830	171	train	TRUE
794	795	trial	3	22	yes	1	right	p42	yes	right	p42_right	up	1	738	171	train	TRUE
797	798	trial	3	23	no	0	right	p65	yes	left	p65_left	down	1	490	171	train	TRUE
800	801	trial	3	24	yes	1	left	a27	yes	left	a27_left	up	1	908	171	train	TRUE
803	804	trial	3	25	yes	0	right	a11	yes	right	a11_right	down	1	870	171	train	TRUE
806	807	trial	3	26	no	0	right	a33	yes	left	a33_left	down	1	643	171	train	TRUE
809	810	trial	3	27	no	0	right	a69	yes	left	a69_left	up	1	964	171	train	TRUE
812	813	trial	3	28	no	0	left	p3	no	right	p3_right	down	1	634	171	train	TRUE
815	816	trial	3	29	yes	1	left	a44	no	left	a44_left	up	1	582	171	train	TRUE
818	819	trial	3	30	yes	0	left	p5	no	left	p5_left	down	1	490	171	train	TRUE
821	822	trial	3	31	no	0	left	a69	yes	right	a69_right	up	1	610	171	train	TRUE
824	825	trial	3	32	yes	0	left	p3	yes	left	p3_left	down	1	515	171	train	TRUE
827	828	trial	3	33	yes	0	right	p42	no	right	p42_right	up	1	642	171	train	TRUE
830	831	trial	3	34	no	1	left	a69	no	right	a69_right	up	1	716	171	train	TRUE
833	834	trial	3	35	no	1	right	a33	yes	left	a33_left	down	1	803	171	train	TRUE
836	837	trial	3	36	yes	0	left	p65	yes	left	p65_left	up	1	655	171	train	TRUE
839	840	trial	3	37	no	1	right	a11	no	left	a11_left	down	1	611	171	train	TRUE
842	843	trial	3	38	yes	0	right	p5	no	right	p5_right	up	1	472	171	train	TRUE
845	846	trial	3	39	no	1	left	p5	no	right	p5_right	up	1	630	171	train	TRUE
848	849	trial	3	40	yes	1	right	p3	yes	right	p3_right	down	1	447	171	train	TRUE
851	852	trial	3	41	no	0	left	a33	yes	right	a33_right	up	1	556	171	train	TRUE
854	855	trial	3	42	no	1	right	p1	no	left	p1_left	up	1	682	171	train	TRUE
857	858	trial	3	43	no	0	left	p5	yes	right	p5_right	up	1	505	171	train	TRUE
860	861	trial	3	44	no	0	left	a27	no	right	a27_right	down	1	488	171	train	TRUE
863	864	trial	3	45	no	0	right	p3	no	left	p3_left	up	2	553	171	train	TRUE
867	868	trial	3	46	yes	1	right	p3	no	right	p3_right	up	1	575	171	train	TRUE
870	871	trial	3	47	yes	1	right	p65	yes	right	p65_right	up	1	409	171	train	TRUE
873	874	trial	3	48	yes	1	right	a44	no	right	a44_right	up	1	650	171	train	TRUE
876	877	trial	3	49	yes	1	left	a33	no	left	a33_left	down	1	652	171	train	TRUE
879	880	trial	3	50	yes	1	left	p42	yes	left	p42_left	down	1	671	171	train	TRUE
882	883	trial	3	51	yes	0	left	a44	no	left	a44_left	down	1	596	171	train	TRUE
885	886	trial	3	52	no	1	left	p3	yes	right	p3_right	up	1	567	171	train	TRUE
888	889	trial	3	53	no	0	right	a48	yes	left	a48_left	down	1	455	171	train	TRUE
891	892	trial	3	54	no	1	left	a27	no	right	a27_right	up	1	719	171	train	TRUE
894	895	trial	3	55	yes	0	left	a44	yes	left	a44_left	down	1	641	171	train	TRUE
897	898	trial	3	56	no	1	left	a69	yes	right	a69_right	up	1	577	171	train	TRUE
900	901	trial	3	57	yes	0	right	a69	yes	right	a69_right	down	1	511	171	train	TRUE
903	904	trial	3	58	no	0	left	p2	yes	right	p2_right	down	1	449	171	train	TRUE
906	907	trial	3	59	yes	0	right	a11	no	right	a11_right	down	1	646	171	train	TRUE
909	910	trial	3	60	yes	1	left	a48	no	left	a48_left	up	1	735	171	train	TRUE
912	913	trial	3	61	no	1	left	p1	no	right	p1_right	down	1	525	171	train	TRUE
915	916	trial	3	62	yes	1	right	a48	yes	right	a48_right	up	1	665	171	train	TRUE
918	919	trial	3	63	yes	1	left	p5	yes	left	p5_left	up	1	516	171	train	TRUE
921	922	trial	3	64	yes	0	right	p5	yes	right	p5_right	down	1	497	171	train	TRUE
924	925	trial	3	65	yes	0	left	a11	yes	left	a11_left	up	1	661	171	train	TRUE
927	928	trial	3	66	yes	0	right	p42	yes	right	p42_right	up	1	531	171	train	TRUE
930	931	trial	3	67	no	0	right	p3	yes	left	p3_left	down	1	540	171	train	TRUE
933	934	trial	3	68	no	1	left	p65	no	right	p65_right	up	1	679	171	train	TRUE
936	937	trial	3	69	no	1	left	a33	yes	right	a33_right	down	1	497	171	train	TRUE
939	940	trial	3	70	no	1	right	p65	no	left	p65_left	up	1	523	171	train	TRUE
942	943	trial	3	71	no	1	right	p3	no	left	p3_left	down	1	567	171	train	TRUE
945	946	trial	3	72	no	1	left	p2	no	right	p2_right	up	1	715	171	train	TRUE
948	949	trial	3	73	no	1	right	a11	yes	left	a11_left	up	1	466	171	train	TRUE
951	952	trial	3	74	no	1	right	p2	yes	left	p2_left	up	1	605	171	train	TRUE
954	955	trial	3	75	yes	0	left	a27	no	left	a27_left	down	1	639	171	train	TRUE
957	958	trial	3	76	no	1	right	p5	no	left	p5_left	up	1	491	171	train	TRUE
960	961	trial	3	77	no	0	left	a44	yes	right	a44_right	down	1	694	171	train	TRUE
963	964	trial	3	78	yes	1	right	p1	yes	right	p1_right	up	1	481	171	train	TRUE
966	967	trial	3	79	no	1	left	a44	no	right	a44_right	up	1	678	171	train	TRUE
969	970	trial	3	80	yes	1	right	p2	no	right	p2_right	down	1	564	171	train	TRUE
972	973	trial	3	81	no	0	left	p65	no	right	p65_right	up	1	1344	171	train	TRUE
975	976	trial	3	82	yes	0	left	p3	no	left	p3_left	up	1	829	171	train	TRUE
978	979	trial	3	83	yes	0	right	a27	yes	right	a27_right	down	1	604	171	train	TRUE
981	982	trial	3	84	yes	0	left	a27	yes	left	a27_left	down	1	531	171	train	TRUE
984	985	trial	3	85	yes	0	right	p3	yes	right	p3_right	down	1	518	171	train	TRUE
987	988	trial	3	86	no	0	right	a44	yes	left	a44_left	up	1	584	171	train	TRUE
990	991	trial	3	87	no	1	left	a48	yes	right	a48_right	down	1	612	171	train	TRUE
993	994	trial	3	88	no	0	right	p5	no	left	p5_left	up	1	453	171	train	TRUE
996	997	trial	3	89	no	0	left	a11	yes	right	a11_right	up	1	1351	171	train	TRUE
999	1000	trial	3	90	no	0	right	p1	no	left	p1_left	down	1	571	171	train	TRUE
1002	1003	trial	3	91	no	1	left	p5	yes	right	p5_right	down	1	568	171	train	TRUE
1005	1006	trial	3	92	no	0	left	a11	no	right	a11_right	down	1	481	171	train	TRUE
1008	1009	trial	3	93	no	0	right	p2	yes	left	p2_left	up	1	596	171	train	TRUE
1011	1012	trial	3	94	yes	0	right	a48	yes	right	a48_right	down	1	739	171	train	TRUE
1014	1015	trial	3	95	yes	0	right	p2	yes	right	p2_right	up	1	520	171	train	TRUE
12	13	trial	0	0	yes	0	right	practice	yes	right	practice_right	up	1	404	172	practice	TRUE
15	16	trial	0	1	yes	0	right	practice	no	right	practice_right	up	1	422	172	practice	TRUE
18	19	trial	0	2	no	0	left	practice	no	right	practice_right	down	1	460	172	practice	TRUE
21	22	trial	0	3	no	0	left	practice	yes	right	practice_right	down	1	370	172	practice	TRUE
24	25	trial	0	4	no	0	right	practice	no	left	practice_left	up	1	398	172	practice	TRUE
27	28	trial	0	5	no	0	right	practice	yes	left	practice_left	down	1	463	172	practice	TRUE
30	31	trial	0	6	yes	0	left	practice	yes	left	practice_left	up	1	689	172	practice	TRUE
33	34	trial	0	7	yes	0	left	practice	no	left	practice_left	down	1	612	172	practice	TRUE
40	41	trial	1	0	no	0	left	p11	no	right	p11_right	down	1	556	172	assess	TRUE
43	44	trial	1	1	yes	1	right	a60	no	right	a60_right	up	1	526	172	assess	TRUE
46	47	trial	1	2	no	1	right	a40	yes	left	a40_left	down	1	518	172	assess	TRUE
49	50	trial	1	3	no	0	right	p57	yes	left	p57_left	up	1	393	172	assess	TRUE
52	53	trial	1	4	no	1	left	a5	yes	right	a5_right	down	1	560	172	assess	TRUE
55	56	trial	1	5	yes	0	right	a59	no	right	a59_right	up	1	487	172	assess	TRUE
58	59	trial	1	6	yes	0	right	p57	yes	right	p57_right	up	1	458	172	assess	TRUE
61	62	trial	1	7	yes	1	right	a59	no	right	a59_right	up	1	460	172	assess	TRUE
64	65	trial	1	8	no	1	right	p10	yes	left	p10_left	up	1	486	172	assess	TRUE
67	68	trial	1	9	yes	0	right	p57	no	right	p57_right	down	1	557	172	assess	TRUE
70	71	trial	1	10	yes	0	left	p57	yes	left	p57_left	down	1	654	172	assess	TRUE
73	74	trial	1	11	yes	0	right	a60	no	right	a60_right	up	1	562	172	assess	TRUE
76	77	trial	1	12	no	0	left	a60	yes	right	a60_right	up	1	732	172	assess	TRUE
79	80	trial	1	13	no	1	left	p10	no	right	p10_right	down	1	637	172	assess	TRUE
82	83	trial	1	14	no	0	right	p11	yes	left	p11_left	down	1	589	172	assess	TRUE
85	86	trial	1	15	no	1	left	a40	yes	right	a40_right	up	1	582	172	assess	TRUE
88	89	trial	1	16	yes	0	left	a60	no	left	a60_left	up	1	580	172	assess	TRUE
91	92	trial	1	17	yes	1	left	p60	yes	left	p60_left	up	1	611	172	assess	TRUE
94	95	trial	1	18	yes	1	left	a40	no	left	a40_left	down	1	738	172	assess	TRUE
97	98	trial	1	19	yes	1	right	p60	no	right	p60_right	up	1	457	172	assess	TRUE
100	101	trial	1	20	yes	1	left	a60	yes	left	a60_left	down	1	552	172	assess	TRUE
103	104	trial	1	21	no	1	left	a60	no	right	a60_right	up	1	720	172	assess	TRUE
106	107	trial	1	22	yes	1	left	a5	yes	left	a5_left	up	1	562	172	assess	TRUE
109	110	trial	1	23	yes	0	left	p57	no	left	p57_left	down	1	591	172	assess	TRUE
112	113	trial	1	24	no	1	left	p57	no	right	p57_right	down	1	615	172	assess	TRUE
115	116	trial	1	25	no	0	right	p10	yes	left	p10_left	up	1	423	172	assess	TRUE
118	119	trial	1	26	no	0	right	p11	no	left	p11_left	up	1	613	172	assess	TRUE
121	122	trial	1	27	yes	0	left	a40	yes	left	a40_left	down	1	760	172	assess	TRUE
124	125	trial	1	28	no	0	right	a40	yes	left	a40_left	up	1	653	172	assess	TRUE
127	128	trial	1	29	yes	1	right	p57	no	right	p57_right	up	1	443	172	assess	TRUE
130	131	trial	1	30	yes	0	right	a40	yes	right	a40_right	down	1	695	172	assess	TRUE
133	134	trial	1	31	yes	0	right	a40	no	right	a40_right	up	1	593	172	assess	TRUE
136	137	trial	1	32	no	0	left	p10	no	right	p10_right	down	1	654	172	assess	TRUE
139	140	trial	1	33	yes	0	left	a5	no	left	a5_left	up	1	735	172	assess	TRUE
142	143	trial	1	34	yes	1	left	a59	no	left	a59_left	down	1	556	172	assess	TRUE
145	146	trial	1	35	no	1	left	p60	yes	right	p60_right	down	1	497	172	assess	TRUE
148	149	trial	1	36	no	1	right	a5	yes	left	a5_left	up	1	445	172	assess	TRUE
151	152	trial	1	37	no	1	right	p60	no	left	p60_left	up	1	429	172	assess	TRUE
154	155	trial	1	38	no	0	right	p60	yes	left	p60_left	up	2	501	172	assess	TRUE
158	159	trial	1	39	no	1	left	p57	yes	right	p57_right	up	1	712	172	assess	TRUE
161	162	trial	1	40	no	1	right	a5	no	left	a5_left	up	1	527	172	assess	TRUE
164	165	trial	1	41	no	0	left	p11	yes	right	p11_right	down	1	727	172	assess	TRUE
167	168	trial	1	42	no	1	right	p57	no	left	p57_left	down	1	512	172	assess	TRUE
170	171	trial	1	43	no	0	left	a59	no	right	a59_right	up	1	686	172	assess	TRUE
173	174	trial	1	44	yes	1	left	p10	yes	left	p10_left	up	1	578	172	assess	TRUE
176	177	trial	1	45	yes	0	right	a5	yes	right	a5_right	down	1	489	172	assess	TRUE
179	180	trial	1	46	no	1	left	a60	yes	right	a60_right	down	1	526	172	assess	TRUE
182	183	trial	1	47	no	0	left	p57	yes	right	p57_right	down	1	684	172	assess	TRUE
185	186	trial	1	48	yes	1	right	p10	no	right	p10_right	up	1	472	172	assess	TRUE
188	189	trial	1	49	yes	0	left	p60	yes	left	p60_left	down	1	643	172	assess	TRUE
191	192	trial	1	50	no	1	right	p11	no	left	p11_left	down	1	617	172	assess	TRUE
194	195	trial	1	51	yes	1	right	p60	yes	right	p60_right	down	1	480	172	assess	TRUE
197	198	trial	1	52	yes	1	right	a5	yes	right	a5_right	up	1	491	172	assess	TRUE
200	201	trial	1	53	no	0	right	p10	no	left	p10_left	up	1	536	172	assess	TRUE
203	204	trial	1	54	yes	0	right	p10	yes	right	p10_right	up	1	472	172	assess	TRUE
206	207	trial	1	55	no	1	right	a40	no	left	a40_left	up	1	476	172	assess	TRUE
209	210	trial	1	56	no	0	right	a60	yes	left	a60_left	up	1	709	172	assess	TRUE
212	213	trial	1	57	yes	1	left	a5	no	left	a5_left	down	1	655	172	assess	TRUE
215	216	trial	1	58	yes	0	left	p10	yes	left	p10_left	down	1	544	172	assess	TRUE
218	219	trial	1	59	no	1	left	a59	yes	right	a59_right	up	1	546	172	assess	TRUE
221	222	trial	1	60	yes	1	right	p11	yes	right	p11_right	down	1	508	172	assess	TRUE
224	225	trial	1	61	yes	0	left	p11	yes	left	p11_left	down	1	654	172	assess	TRUE
227	228	trial	1	62	no	0	left	a40	no	right	a40_right	down	1	666	172	assess	TRUE
230	231	trial	1	63	yes	0	right	p11	no	right	p11_right	down	1	658	172	assess	TRUE
233	234	trial	1	64	no	1	right	a60	no	left	a60_left	up	1	504	172	assess	TRUE
236	237	trial	1	65	no	0	left	p60	no	right	p60_right	up	1	794	172	assess	TRUE
239	240	trial	1	66	yes	1	left	p57	yes	left	p57_left	up	1	532	172	assess	TRUE
242	243	trial	1	67	no	0	left	p57	no	right	p57_right	up	1	539	172	assess	TRUE
245	246	trial	1	68	no	0	right	a40	no	left	a40_left	down	1	482	172	assess	TRUE
248	249	trial	1	69	yes	1	right	p57	yes	right	p57_right	up	1	436	172	assess	TRUE
251	252	trial	1	70	yes	1	left	p11	no	left	p11_left	down	1	526	172	assess	TRUE
254	255	trial	1	71	no	1	left	p11	yes	right	p11_right	up	1	559	172	assess	TRUE
257	258	trial	1	72	no	1	right	p57	yes	left	p57_left	down	1	492	172	assess	TRUE
260	261	trial	1	73	yes	0	right	a60	yes	right	a60_right	down	1	424	172	assess	TRUE
263	264	trial	1	74	no	1	left	a59	no	right	a59_right	up	1	734	172	assess	TRUE
266	267	trial	1	75	yes	1	right	p10	yes	right	p10_right	up	1	652	172	assess	TRUE
269	270	trial	1	76	no	0	right	p60	no	left	p60_left	down	1	532	172	assess	TRUE
272	273	trial	1	77	no	0	left	a5	yes	right	a5_right	down	1	668	172	assess	TRUE
275	276	trial	1	78	yes	0	left	a59	no	left	a59_left	down	1	627	172	assess	TRUE
278	279	trial	1	79	yes	1	right	a60	yes	right	a60_right	down	1	555	172	assess	TRUE
281	282	trial	1	80	yes	0	left	a59	yes	left	a59_left	down	1	514	172	assess	TRUE
284	285	trial	1	81	no	0	left	p60	yes	right	p60_right	down	1	496	172	assess	TRUE
287	288	trial	1	82	no	0	right	a59	no	left	a59_left	down	1	373	172	assess	TRUE
290	291	trial	1	83	yes	0	left	a60	yes	left	a60_left	down	1	699	172	assess	TRUE
293	294	trial	1	84	no	0	right	a59	yes	left	a59_left	down	1	380	172	assess	TRUE
296	297	trial	1	85	no	0	right	a5	yes	left	a5_left	up	1	537	172	assess	TRUE
299	300	trial	1	86	no	1	left	a5	no	right	a5_right	down	1	504	172	assess	TRUE
302	303	trial	1	87	yes	1	left	p60	no	left	p60_left	down	1	686	172	assess	TRUE
305	306	trial	1	88	yes	0	right	p60	no	right	p60_right	down	1	557	172	assess	TRUE
308	309	trial	1	89	yes	0	right	p60	yes	right	p60_right	down	1	428	172	assess	TRUE
311	312	trial	1	90	no	1	right	a59	no	left	a59_left	down	1	458	172	assess	TRUE
314	315	trial	1	91	no	0	right	p57	no	left	p57_left	up	1	647	172	assess	TRUE
317	318	trial	1	92	yes	1	right	a5	no	right	a5_right	up	1	592	172	assess	TRUE
320	321	trial	1	93	yes	1	right	a40	yes	right	a40_right	up	1	496	172	assess	TRUE
323	324	trial	1	94	no	0	left	a59	yes	right	a59_right	down	1	616	172	assess	TRUE
326	327	trial	1	95	yes	0	left	a5	yes	left	a5_left	down	1	453	172	assess	TRUE
329	330	trial	1	96	yes	0	left	a40	no	left	a40_left	down	1	508	172	assess	TRUE
332	333	trial	1	97	no	0	left	p10	yes	right	p10_right	up	1	785	172	assess	TRUE
335	336	trial	1	98	no	0	left	a40	yes	right	a40_right	down	1	483	172	assess	TRUE
338	339	trial	1	99	yes	1	right	a40	no	right	a40_right	up	1	565	172	assess	TRUE
341	342	trial	1	100	no	0	left	a5	no	right	a5_right	up	1	566	172	assess	TRUE
344	345	trial	1	101	yes	1	left	p10	no	left	p10_left	up	1	645	172	assess	TRUE
347	348	trial	1	102	no	1	left	a40	no	right	a40_right	down	1	654	172	assess	TRUE
350	351	trial	1	103	yes	1	left	a59	yes	left	a59_left	down	1	503	172	assess	TRUE
353	354	trial	1	104	no	1	right	a60	yes	left	a60_left	up	1	561	172	assess	TRUE
356	357	trial	1	105	no	1	left	p10	yes	right	p10_right	down	1	651	172	assess	TRUE
359	360	trial	1	106	no	0	right	a60	no	left	a60_left	up	1	461	172	assess	TRUE
362	363	trial	1	107	no	1	right	p10	no	left	p10_left	down	1	548	172	assess	TRUE
365	366	trial	1	108	no	1	right	p60	yes	left	p60_left	up	1	492	172	assess	TRUE
368	369	trial	1	109	yes	1	left	p57	no	left	p57_left	up	1	678	172	assess	TRUE
371	372	trial	1	110	yes	1	left	a60	no	left	a60_left	up	1	610	172	assess	TRUE
374	375	trial	1	111	yes	0	right	a59	yes	right	a59_right	up	1	466	172	assess	TRUE
377	378	trial	1	112	no	1	left	p11	no	right	p11_right	down	1	624	172	assess	TRUE
380	381	trial	1	113	yes	0	right	a5	no	right	a5_right	up	1	748	172	assess	TRUE
383	384	trial	1	114	yes	0	left	p10	no	left	p10_left	down	1	586	172	assess	TRUE
386	387	trial	1	115	yes	0	left	p11	no	left	p11_left	down	1	631	172	assess	TRUE
389	390	trial	1	116	yes	1	left	p11	yes	left	p11_left	down	1	502	172	assess	TRUE
392	393	trial	1	117	no	1	left	p60	no	right	p60_right	up	1	556	172	assess	TRUE
395	396	trial	1	118	yes	1	right	a59	yes	right	a59_right	up	1	605	172	assess	TRUE
398	399	trial	1	119	yes	1	right	p11	no	right	p11_right	down	1	543	172	assess	TRUE
401	402	trial	1	120	no	0	right	a5	no	left	a5_left	up	1	460	172	assess	TRUE
404	405	trial	1	121	no	0	left	a60	no	right	a60_right	up	1	532	172	assess	TRUE
407	408	trial	1	122	yes	1	left	a40	yes	left	a40_left	down	1	536	172	assess	TRUE
410	411	trial	1	123	no	1	right	a59	yes	left	a59_left	down	1	409	172	assess	TRUE
413	414	trial	1	124	no	1	right	p11	yes	left	p11_left	up	1	650	172	assess	TRUE
416	417	trial	1	125	yes	0	right	p10	no	right	p10_right	up	1	511	172	assess	TRUE
419	420	trial	1	126	yes	0	left	p60	no	left	p60_left	down	1	579	172	assess	TRUE
422	423	trial	1	127	yes	0	right	p11	yes	right	p11_right	up	1	554	172	assess	TRUE
429	430	trial	2	0	no	0	left	a62	no	right	a62_right	down	1	448	172	train	TRUE
432	433	trial	2	1	yes	1	left	a68	no	left	a68_left	down	1	448	172	train	TRUE
435	436	trial	2	2	no	0	right	p5	yes	left	p5_left	down	1	622	172	train	TRUE
438	439	trial	2	3	no	1	left	p61	yes	right	p61_right	up	1	691	172	train	TRUE
441	442	trial	2	4	yes	1	left	p38	yes	left	p38_left	down	1	550	172	train	TRUE
444	445	trial	2	5	yes	0	right	p61	no	right	p61_right	down	1	510	172	train	TRUE
447	448	trial	2	6	no	1	left	a74	yes	right	a74_right	up	1	775	172	train	TRUE
450	451	trial	2	7	yes	0	right	p55	yes	right	p55_right	down	1	710	172	train	TRUE
